wavelength(nm)         real         imag
100.00   3.87302559   0.00025776
102.00   3.87193592   0.00027354
104.00   3.87082469   0.00028995
106.00   3.86969189   0.00030700
108.00   3.86853752   0.00032470
110.00   3.86736159   0.00034308
112.00   3.86616408   0.00036213
114.00   3.86494501   0.00038188
116.00   3.86370438   0.00040233
118.00   3.86244217   0.00042350
120.00   3.86115841   0.00044540
122.00   3.85985307   0.00046804
124.00   3.85852618   0.00049144
126.00   3.85717772   0.00051560
128.00   3.85580770   0.00054054
130.00   3.85441611   0.00056627
132.00   3.85300297   0.00059281
134.00   3.85156826   0.00062016
136.00   3.85011200   0.00064835
138.00   3.84863417   0.00067737
140.00   3.84713478   0.00070725
142.00   3.84561384   0.00073799
144.00   3.84407134   0.00076961
146.00   3.84250728   0.00080212
148.00   3.84092167   0.00083553
150.00   3.83931450   0.00086986
152.00   3.83768577   0.00090511
154.00   3.83603549   0.00094131
156.00   3.83436366   0.00097846
158.00   3.83267028   0.00101657
160.00   3.83095534   0.00105566
162.00   3.82921885   0.00109573
164.00   3.82746081   0.00113681
166.00   3.82568122   0.00117890
168.00   3.82388008   0.00122202
170.00   3.82205740   0.00126618
172.00   3.82021316   0.00131139
174.00   3.81834738   0.00135766
176.00   3.81646006   0.00140501
178.00   3.81455119   0.00145344
180.00   3.81262077   0.00150298
182.00   3.81066882   0.00155363
184.00   3.80869532   0.00160540
186.00   3.80670027   0.00165831
188.00   3.80468369   0.00171237
190.00   3.80264557   0.00176759
192.00   3.80058591   0.00182398
194.00   3.79850471   0.00188157
196.00   3.79640198   0.00194035
198.00   3.79427770   0.00200034
200.00   3.79213190   0.00206156
202.00   3.78996455   0.00212401
204.00   3.78777568   0.00218771
206.00   3.78556527   0.00225267
208.00   3.78333333   0.00231890
210.00   3.78107987   0.00238642
212.00   3.77880487   0.00245523
214.00   3.77650834   0.00252536
216.00   3.77419029   0.00259681
218.00   3.77185071   0.00266959
220.00   3.76948960   0.00274372
222.00   3.76710697   0.00281921
224.00   3.76470282   0.00289607
226.00   3.76227714   0.00297431
228.00   3.75982995   0.00305395
230.00   3.75736123   0.00313500
232.00   3.75487099   0.00321747
234.00   3.75235924   0.00330137
236.00   3.74982597   0.00338672
238.00   3.74727118   0.00347352
240.00   3.74469488   0.00356180
242.00   3.74209707   0.00365155
244.00   3.73947774   0.00374280
246.00   3.73683690   0.00383556
248.00   3.73417455   0.00392984
250.00   3.73149070   0.00402565
252.00   3.72878533   0.00412300
254.00   3.72605846   0.00422191
256.00   3.72331008   0.00432239
258.00   3.72054020   0.00442445
260.00   3.71774882   0.00452810
262.00   3.71493594   0.00463335
264.00   3.71210155   0.00474023
266.00   3.70924566   0.00484873
268.00   3.70636828   0.00495888
270.00   3.70346940   0.00507068
272.00   3.70054903   0.00518414
274.00   3.69760716   0.00529929
276.00   3.69464380   0.00541613
278.00   3.69165894   0.00553467
280.00   3.68865260   0.00565493
282.00   3.68562477   0.00577691
284.00   3.68257544   0.00590064
286.00   3.67950464   0.00602612
288.00   3.67641235   0.00615336
290.00   3.67329857   0.00628238
292.00   3.67016331   0.00641319
294.00   3.66700657   0.00654580
296.00   3.66382836   0.00668023
298.00   3.66062866   0.00681648
300.00   3.65740749   0.00695457
302.00   3.65416484   0.00709452
304.00   3.65090072   0.00723632
306.00   3.64761512   0.00738001
308.00   3.64430806   0.00752558
310.00   3.64097952   0.00767304
312.00   3.63762952   0.00782243
314.00   3.63425805   0.00797373
316.00   3.63086511   0.00812698
318.00   3.62745072   0.00828217
320.00   3.62401485   0.00843932
322.00   3.62055753   0.00859845
324.00   3.61707875   0.00875956
326.00   3.61357851   0.00892268
328.00   3.61005682   0.00908780
330.00   3.60651367   0.00925494
332.00   3.60294907   0.00942412
334.00   3.59936301   0.00959535
336.00   3.59575551   0.00976864
338.00   3.59212656   0.00994399
340.00   3.58847616   0.01012144
342.00   3.58480432   0.01030097
344.00   3.58111103   0.01048262
346.00   3.57739630   0.01066639
348.00   3.57366013   0.01085229
350.00   3.56990252   0.01104033
352.00   3.56612347   0.01123054
354.00   3.56232299   0.01142291
356.00   3.55850108   0.01161746
358.00   3.55465773   0.01181421
360.00   3.55079296   0.01201316
362.00   3.54690675   0.01221434
364.00   3.54299912   0.01241774
366.00   3.53907006   0.01262339
368.00   3.53511958   0.01283129
370.00   3.53114767   0.01304146
372.00   3.52715435   0.01325391
374.00   3.52313961   0.01346865
376.00   3.51910345   0.01368569
378.00   3.51504587   0.01390506
380.00   3.51096689   0.01412674
382.00   3.50686649   0.01435078
384.00   3.50274468   0.01457716
386.00   3.49860147   0.01480591
388.00   3.49443684   0.01503703
390.00   3.49025082   0.01527055
392.00   3.48604339   0.01550647
394.00   3.48181456   0.01574480
396.00   3.47756434   0.01598555
398.00   3.47329271   0.01622875
400.00   3.46899970   0.01647440
402.00   3.46468528   0.01672251
404.00   3.46034948   0.01697309
406.00   3.45599229   0.01722616
408.00   3.45161371   0.01748173
410.00   3.44721375   0.01773981
412.00   3.44279240   0.01800042
414.00   3.43834967   0.01826356
416.00   3.43388556   0.01852925
418.00   3.42940007   0.01879750
420.00   3.42489321   0.01906832
422.00   3.42036497   0.01934173
424.00   3.41581537   0.01961773
426.00   3.41124439   0.01989634
428.00   3.40665204   0.02017758
430.00   3.40203833   0.02046145
432.00   3.39740326   0.02074796
434.00   3.39274682   0.02103713
436.00   3.38806902   0.02132897
438.00   3.38336987   0.02162349
440.00   3.37864936   0.02192071
442.00   3.37390749   0.02222063
444.00   3.36914428   0.02252327
446.00   3.36435971   0.02282864
448.00   3.35955380   0.02313675
450.00   3.35472655   0.02344762
452.00   3.34987795   0.02376126
454.00   3.34500800   0.02407767
456.00   3.34011672   0.02439688
458.00   3.33520411   0.02471889
460.00   3.33027015   0.02504371
462.00   3.32531487   0.02537137
464.00   3.32033826   0.02570186
466.00   3.31534031   0.02603520
468.00   3.31032104   0.02637141
470.00   3.30528045   0.02671050
472.00   3.30021854   0.02705247
474.00   3.29513530   0.02739735
476.00   3.29003075   0.02774513
478.00   3.28490489   0.02809585
480.00   3.27975771   0.02844949
482.00   3.27458922   0.02880609
484.00   3.26939942   0.02916565
486.00   3.26418832   0.02952818
488.00   3.25895591   0.02989370
490.00   3.25370220   0.03026221
492.00   3.24842720   0.03063374
494.00   3.24313089   0.03100828
496.00   3.23781329   0.03138586
498.00   3.23247440   0.03176649
500.00   3.22711422   0.03215017
502.00   3.22173275   0.03253692
504.00   3.21633000   0.03292676
506.00   3.21090596   0.03331969
508.00   3.20546064   0.03371573
510.00   3.19999405   0.03411488
512.00   3.19450618   0.03451716
514.00   3.18899703   0.03492259
516.00   3.18346662   0.03533117
518.00   3.17791493   0.03574292
520.00   3.17234198   0.03615785
522.00   3.16674777   0.03657597
524.00   3.16113229   0.03699729
526.00   3.15549556   0.03742183
528.00   3.14983757   0.03784959
530.00   3.14415832   0.03828059
532.00   3.13845783   0.03871484
534.00   3.13273608   0.03915236
536.00   3.12699309   0.03959315
538.00   3.12122886   0.04003723
540.00   3.11544338   0.04048461
542.00   3.10963666   0.04093530
544.00   3.10380871   0.04138932
546.00   3.09795952   0.04184667
548.00   3.09208911   0.04230736
550.00   3.08619746   0.04277142
552.00   3.08028459   0.04323885
554.00   3.07435049   0.04370966
556.00   3.06839517   0.04418387
558.00   3.06241864   0.04466148
560.00   3.05642088   0.04514252
562.00   3.05040192   0.04562699
564.00   3.04436174   0.04611490
566.00   3.03830036   0.04660626
568.00   3.03221777   0.04710110
570.00   3.02611398   0.04759941
572.00   3.01998898   0.04810122
574.00   3.01384279   0.04860653
576.00   3.00767541   0.04911535
578.00   3.00148683   0.04962771
580.00   2.99527706   0.05014360
582.00   2.98904611   0.05066305
584.00   2.98279397   0.05118606
586.00   2.97652065   0.05171264
588.00   2.97022616   0.05224282
590.00   2.96391048   0.05277659
592.00   2.95757364   0.05331398
594.00   2.95121562   0.05385498
596.00   2.94483643   0.05439963
598.00   2.93843609   0.05494792
600.00   2.93201457   0.05549987
602.00   2.92557190   0.05605550
604.00   2.91910808   0.05661481
606.00   2.91262309   0.05717781
608.00   2.90611696   0.05774452
610.00   2.89958968   0.05831495
612.00   2.89304126   0.05888912
614.00   2.88647169   0.05946702
616.00   2.87988098   0.06004868
618.00   2.87326914   0.06063411
620.00   2.86663616   0.06122332
622.00   2.85998205   0.06181632
624.00   2.85330682   0.06241312
626.00   2.84661045   0.06301374
628.00   2.83989297   0.06361819
630.00   2.83315437   0.06422647
632.00   2.82639465   0.06483861
634.00   2.81961381   0.06545461
636.00   2.81281187   0.06607448
638.00   2.80598882   0.06669824
640.00   2.79914466   0.06732590
642.00   2.79227941   0.06795747
644.00   2.78539305   0.06859296
646.00   2.77848560   0.06923239
648.00   2.77155705   0.06987576
650.00   2.76460742   0.07052309
652.00   2.75763670   0.07117439
654.00   2.75064489   0.07182968
656.00   2.74363201   0.07248895
658.00   2.73659804   0.07315224
660.00   2.72954300   0.07381954
662.00   2.72246690   0.07449087
664.00   2.71536972   0.07516624
666.00   2.70825147   0.07584567
668.00   2.70111217   0.07652916
670.00   2.69395180   0.07721673
672.00   2.68677038   0.07790839
674.00   2.67956791   0.07860415
676.00   2.67234439   0.07930402
678.00   2.66509982   0.08000801
680.00   2.65783420   0.08071615
682.00   2.65054755   0.08142843
684.00   2.64323986   0.08214487
686.00   2.63591113   0.08286548
688.00   2.62856137   0.08359028
690.00   2.62119059   0.08431927
692.00   2.61379878   0.08505247
694.00   2.60638595   0.08578989
696.00   2.59895210   0.08653155
698.00   2.59149724   0.08727744
700.00   2.58402136   0.08802759
702.00   2.57652448   0.08878201
704.00   2.56900659   0.08954070
706.00   2.56146770   0.09030369
708.00   2.55390780   0.09107098
710.00   2.54632692   0.09184258
712.00   2.53872504   0.09261851
714.00   2.53110217   0.09339877
716.00   2.52345832   0.09418339
718.00   2.51579349   0.09497237
720.00   2.50810767   0.09576572
722.00   2.50040088   0.09656345
724.00   2.49267312   0.09736559
726.00   2.48492439   0.09817213
728.00   2.47715469   0.09898309
730.00   2.46936403   0.09979848
732.00   2.46155241   0.10061832
734.00   2.45371984   0.10144261
736.00   2.44586631   0.10227137
738.00   2.43799184   0.10310461
740.00   2.43009642   0.10394234
742.00   2.42218006   0.10478458
744.00   2.41424276   0.10563132
746.00   2.40628452   0.10648260
748.00   2.39830535   0.10733841
750.00   2.39030526   0.10819877
752.00   2.38228423   0.10906370
754.00   2.37424229   0.10993320
756.00   2.36617943   0.11080728
758.00   2.35809566   0.11168596
760.00   2.34999097   0.11256925
762.00   2.34186538   0.11345715
764.00   2.33371888   0.11434969
766.00   2.32555148   0.11524688
768.00   2.31736319   0.11614872
770.00   2.30915400   0.11705522
772.00   2.30092392   0.11796641
774.00   2.29267296   0.11888229
776.00   2.28440111   0.11980286
778.00   2.27610839   0.12072816
780.00   2.26779479   0.12165817
782.00   2.25946031   0.12259293
784.00   2.25110497   0.12353244
786.00   2.24272877   0.12447670
788.00   2.23433170   0.12542574
790.00   2.22591377   0.12637956
792.00   2.21747499   0.12733818
794.00   2.20901536   0.12830161
796.00   2.20053489   0.12926985
798.00   2.19203357   0.13024293
800.00   2.18351141   0.13122085
802.00   2.17496842   0.13220362
804.00   2.16640459   0.13319126
806.00   2.15781993   0.13418378
808.00   2.14921446   0.13518118
810.00   2.14058816   0.13618349
812.00   2.13194104   0.13719071
814.00   2.12327311   0.13820285
816.00   2.11458437   0.13921993
818.00   2.10587482   0.14024196
820.00   2.09714447   0.14126895
822.00   2.08839332   0.14230091
824.00   2.07962138   0.14333785
826.00   2.07082865   0.14437978
828.00   2.06201513   0.14542672
830.00   2.05318083   0.14647867
832.00   2.04432574   0.14753566
834.00   2.03544988   0.14859769
836.00   2.02655325   0.14966476
838.00   2.01763585   0.15073691
840.00   2.00869769   0.15181412
842.00   1.99973877   0.15289643
844.00   1.99075909   0.15398383
846.00   1.98175865   0.15507634
848.00   1.97273747   0.15617397
850.00   1.96369555   0.15727674
852.00   1.95463288   0.15838465
854.00   1.94554947   0.15949772
856.00   1.93644533   0.16061596
858.00   1.92732047   0.16173938
860.00   1.91817487   0.16286798
862.00   1.90900856   0.16400179
864.00   1.89982152   0.16514082
866.00   1.89061378   0.16628507
868.00   1.88138532   0.16743455
870.00   1.87213616   0.16858929
872.00   1.86286630   0.16974928
874.00   1.85357574   0.17091455
876.00   1.84426448   0.17208510
878.00   1.83493254   0.17326095
880.00   1.82557991   0.17444210
882.00   1.81620659   0.17562858
884.00   1.80681260   0.17682038
886.00   1.79739794   0.17801752
888.00   1.78796260   0.17922001
890.00   1.77850660   0.18042787
892.00   1.76902994   0.18164111
894.00   1.75953263   0.18285973
896.00   1.75001465   0.18408375
898.00   1.74047603   0.18531318
900.00   1.73091676   0.18654803
902.00   1.72133686   0.18778831
904.00   1.71173631   0.18903404
906.00   1.70211513   0.19028523
908.00   1.69247333   0.19154188
910.00   1.68281090   0.19280401
912.00   1.67312784   0.19407163
914.00   1.66342417   0.19534476
916.00   1.65369989   0.19662339
918.00   1.64395500   0.19790755
920.00   1.63418951   0.19919725
922.00   1.62440342   0.20049250
924.00   1.61459673   0.20179330
926.00   1.60476945   0.20309968
928.00   1.59492158   0.20441164
930.00   1.58505313   0.20572919
932.00   1.57516411   0.20705234
934.00   1.56525450   0.20838111
936.00   1.55532433   0.20971551
938.00   1.54537359   0.21105555
940.00   1.53540229   0.21240124
942.00   1.52541043   0.21375259
944.00   1.51539802   0.21510962
946.00   1.50536506   0.21647233
948.00   1.49531156   0.21784073
950.00   1.48523751   0.21921484
952.00   1.47514293   0.22059468
954.00   1.46502782   0.22198024
956.00   1.45489218   0.22337154
958.00   1.44473601   0.22476860
960.00   1.43455933   0.22617142
962.00   1.42436213   0.22758002
964.00   1.41414443   0.22899440
966.00   1.40390621   0.23041458
968.00   1.39364750   0.23184057
970.00   1.38336829   0.23327239
972.00   1.37306859   0.23471003
974.00   1.36274840   0.23615352
976.00   1.35240772   0.23760287
978.00   1.34204657   0.23905808
980.00   1.33166494   0.24051917
982.00   1.32126284   0.24198614
984.00   1.31084028   0.24345902
986.00   1.30039725   0.24493781
988.00   1.28993377   0.24642253
990.00   1.27944983   0.24791317
992.00   1.26894545   0.24940977
994.00   1.25842062   0.25091232
996.00   1.24787535   0.25242084
998.00   1.23730965   0.25393534
1000.00   1.22672352   0.25545583
1002.00   1.21611696   0.25698232
1004.00   1.20548999   0.25851482
1006.00   1.19484259   0.26005335
1008.00   1.18417479   0.26159792
1010.00   1.17348657   0.26314853
1012.00   1.16277795   0.26470520
1014.00   1.15204894   0.26626794
1016.00   1.14129953   0.26783676
1018.00   1.13052973   0.26941168
1020.00   1.11973955   0.27099270
1022.00   1.10892899   0.27257983
1024.00   1.09809805   0.27417309
1026.00   1.08724674   0.27577248
1028.00   1.07637506   0.27737803
1030.00   1.06548303   0.27898973
1032.00   1.05457063   0.28060761
1034.00   1.04363789   0.28223166
1036.00   1.03268479   0.28386191
1038.00   1.02171136   0.28549837
1040.00   1.01071758   0.28714104
1042.00   0.99970347   0.28878994
1044.00   0.98866903   0.29044507
1046.00   0.97761427   0.29210646
1048.00   0.96653919   0.29377410
1050.00   0.95544380   0.29544802
1052.00   0.94432809   0.29712822
1054.00   0.93319208   0.29881471
1056.00   0.92203577   0.30050751
1058.00   0.91085916   0.30220662
1060.00   0.89966226   0.30391207
1062.00   0.88844508   0.30562385
1064.00   0.87720761   0.30734198
1066.00   0.86594987   0.30906647
1068.00   0.85467185   0.31079733
1070.00   0.84337357   0.31253458
1072.00   0.83205502   0.31427822
1074.00   0.82071622   0.31602827
1076.00   0.80935716   0.31778473
1078.00   0.79797786   0.31954762
1080.00   0.78657831   0.32131695
1082.00   0.77515853   0.32309273
1084.00   0.76371851   0.32487497
1086.00   0.75225826   0.32666368
1088.00   0.74077779   0.32845888
1090.00   0.72927710   0.33026057
1092.00   0.71775620   0.33206876
1094.00   0.70621508   0.33388347
1096.00   0.69465377   0.33570471
1098.00   0.68307225   0.33753249
1100.00   0.67147054   0.33936682
1102.00   0.65984864   0.34120770
1104.00   0.64820655   0.34305516
1106.00   0.63654429   0.34490920
1108.00   0.62486185   0.34676984
1110.00   0.61315924   0.34863708
1112.00   0.60143647   0.35051094
1114.00   0.58969354   0.35239142
1116.00   0.57793045   0.35427854
1118.00   0.56614721   0.35617231
1120.00   0.55434383   0.35807274
1122.00   0.54252030   0.35997985
1124.00   0.53067665   0.36189363
1126.00   0.51881286   0.36381411
1128.00   0.50692895   0.36574129
1130.00   0.49502491   0.36767518
1132.00   0.48310077   0.36961580
1134.00   0.47115651   0.37156316
1136.00   0.45919215   0.37351727
1138.00   0.44720769   0.37547813
1140.00   0.43520313   0.37744577
1142.00   0.42317849   0.37942019
1144.00   0.41113376   0.38140140
1146.00   0.39906895   0.38338941
1148.00   0.38698407   0.38538423
1150.00   0.37487912   0.38738588
1152.00   0.36275411   0.38939437
1154.00   0.35060903   0.39140970
1156.00   0.33844390   0.39343189
1158.00   0.32625873   0.39546095
1160.00   0.31405351   0.39749688
1162.00   0.30182825   0.39953971
1164.00   0.28958296   0.40158944
1166.00   0.27731764   0.40364608
1168.00   0.26503230   0.40570965
1170.00   0.25272694   0.40778014
1172.00   0.24040157   0.40985759
1174.00   0.22805619   0.41194198
1176.00   0.21569081   0.41403335
1178.00   0.20330544   0.41613169
1180.00   0.19090007   0.41823702
1182.00   0.17847472   0.42034935
1184.00   0.16602938   0.42246869
1186.00   0.15356407   0.42459506
1188.00   0.14107879   0.42672845
1190.00   0.12857354   0.42886888
1192.00   0.11604834   0.43101637
1194.00   0.10350318   0.43317093
1196.00   0.09093806   0.43533256
1198.00   0.07835301   0.43750127
1200.00   0.06574802   0.43967708
1202.00   0.05312309   0.44186000
1204.00   0.04047824   0.44405004
1206.00   0.02781346   0.44624721
1208.00   0.01512876   0.44845152
1210.00   0.00242416   0.45066297
1212.00  -0.01030036   0.45288159
1214.00  -0.02304477   0.45510739
1216.00  -0.03580908   0.45734036
1218.00  -0.04859328   0.45958053
1220.00  -0.06139737   0.46182791
1222.00  -0.07422134   0.46408250
1224.00  -0.08706518   0.46634432
1226.00  -0.09992889   0.46861337
1228.00  -0.11281246   0.47088967
1230.00  -0.12571590   0.47317323
1232.00  -0.13863918   0.47546406
1234.00  -0.15158231   0.47776217
1236.00  -0.16454529   0.48006757
1238.00  -0.17752810   0.48238028
1240.00  -0.19053074   0.48470029
1242.00  -0.20355321   0.48702763
1244.00  -0.21659550   0.48936230
1246.00  -0.22965760   0.49170432
1248.00  -0.24273951   0.49405369
1250.00  -0.25584122   0.49641043
1252.00  -0.26896274   0.49877454
1254.00  -0.28210404   0.50114604
1256.00  -0.29526514   0.50352494
1258.00  -0.30844601   0.50591125
1260.00  -0.32164666   0.50830498
1262.00  -0.33486708   0.51070613
1264.00  -0.34810727   0.51311473
1266.00  -0.36136721   0.51553078
1268.00  -0.37464691   0.51795429
1270.00  -0.38794636   0.52038527
1272.00  -0.40126555   0.52282374
1274.00  -0.41460448   0.52526970
1276.00  -0.42796314   0.52772317
1278.00  -0.44134152   0.53018415
1280.00  -0.45473963   0.53265266
1282.00  -0.46815745   0.53512870
1284.00  -0.48159498   0.53761229
1286.00  -0.49505221   0.54010344
1288.00  -0.50852914   0.54260215
1290.00  -0.52202576   0.54510845
1292.00  -0.53554207   0.54762233
1294.00  -0.54907806   0.55014382
1296.00  -0.56263372   0.55267291
1298.00  -0.57620906   0.55520963
1300.00  -0.58980406   0.55775397
1302.00  -0.60341871   0.56030597
1304.00  -0.61705302   0.56286561
1306.00  -0.63070697   0.56543291
1308.00  -0.64438057   0.56800789
1310.00  -0.65807380   0.57059056
1312.00  -0.67178666   0.57318092
1314.00  -0.68551915   0.57577899
1316.00  -0.69927125   0.57838477
1318.00  -0.71304297   0.58099828
1320.00  -0.72683429   0.58361952
1322.00  -0.74064521   0.58624852
1324.00  -0.75447573   0.58888527
1326.00  -0.76832584   0.59152979
1328.00  -0.78219553   0.59418209
1330.00  -0.79608479   0.59684218
1332.00  -0.80999363   0.59951007
1334.00  -0.82392204   0.60218577
1336.00  -0.83787001   0.60486929
1338.00  -0.85183753   0.60756064
1340.00  -0.86582460   0.61025983
1342.00  -0.87983121   0.61296688
1344.00  -0.89385736   0.61568179
1346.00  -0.90790304   0.61840458
1348.00  -0.92196824   0.62113524
1350.00  -0.93605297   0.62387381
1352.00  -0.95015721   0.62662027
1354.00  -0.96428095   0.62937465
1356.00  -0.97842420   0.63213696
1358.00  -0.99258694   0.63490721
1360.00  -1.00676917   0.63768540
1362.00  -1.02097089   0.64047154
1364.00  -1.03519209   0.64326566
1366.00  -1.04943275   0.64606775
1368.00  -1.06369289   0.64887783
1370.00  -1.07797248   0.65169591
1372.00  -1.09227153   0.65452199
1374.00  -1.10659002   0.65735610
1376.00  -1.12092796   0.66019823
1378.00  -1.13528534   0.66304841
1380.00  -1.14966214   0.66590663
1382.00  -1.16405837   0.66877292
1384.00  -1.17847402   0.67164728
1386.00  -1.19290908   0.67452972
1388.00  -1.20736355   0.67742025
1390.00  -1.22183742   0.68031888
1392.00  -1.23633068   0.68322562
1394.00  -1.25084333   0.68614049
1396.00  -1.26537537   0.68906349
1398.00  -1.27992678   0.69199463
1400.00  -1.29449756   0.69493393
1402.00  -1.30908770   0.69788139
1404.00  -1.32369720   0.70083702
1406.00  -1.33832606   0.70380084
1408.00  -1.35297426   0.70677286
1410.00  -1.36764180   0.70975307
1412.00  -1.38232867   0.71274151
1414.00  -1.39703488   0.71573817
1416.00  -1.41176040   0.71874306
1418.00  -1.42650524   0.72175620
1420.00  -1.44126939   0.72477760
1422.00  -1.45605284   0.72780726
1424.00  -1.47085559   0.73084520
1426.00  -1.48567763   0.73389143
1428.00  -1.50051896   0.73694595
1430.00  -1.51537956   0.74000878
1432.00  -1.53025944   0.74307993
1434.00  -1.54515858   0.74615941
1436.00  -1.56007699   0.74924722
1438.00  -1.57501464   0.75234338
1440.00  -1.58997155   0.75544790
1442.00  -1.60494770   0.75856079
1444.00  -1.61994308   0.76168206
1446.00  -1.63495769   0.76481172
1448.00  -1.64999153   0.76794977
1450.00  -1.66504458   0.77109624
1452.00  -1.68011684   0.77425112
1454.00  -1.69520831   0.77741443
1456.00  -1.71031897   0.78058619
1458.00  -1.72544883   0.78376639
1460.00  -1.74059787   0.78695505
1462.00  -1.75576609   0.79015219
1464.00  -1.77095349   0.79335780
1466.00  -1.78616005   0.79657190
1468.00  -1.80138577   0.79979451
1470.00  -1.81663065   0.80302562
1472.00  -1.83189467   0.80626526
1474.00  -1.84717784   0.80951342
1476.00  -1.86248014   0.81277013
1478.00  -1.87780157   0.81603538
1480.00  -1.89314213   0.81930920
1482.00  -1.90850179   0.82259159
1484.00  -1.92388057   0.82588256
1486.00  -1.93927846   0.82918212
1488.00  -1.95469544   0.83249028
1490.00  -1.97013151   0.83580706
1492.00  -1.98558666   0.83913245
1494.00  -2.00106090   0.84246648
1496.00  -2.01655420   0.84580914
1498.00  -2.03206657   0.84916046
1500.00  -2.04759800   0.85252044
1502.00  -2.06314849   0.85588909
1504.00  -2.07871802   0.85926642
1506.00  -2.09430659   0.86265244
1508.00  -2.10991419   0.86604717
1510.00  -2.12554082   0.86945060
1512.00  -2.14118647   0.87286276
1514.00  -2.15685113   0.87628365
1516.00  -2.17253480   0.87971328
1518.00  -2.18823747   0.88315166
1520.00  -2.20395914   0.88659880
1522.00  -2.21969979   0.89005471
1524.00  -2.23545943   0.89351941
1526.00  -2.25123804   0.89699289
1528.00  -2.26703562   0.90047518
1530.00  -2.28285217   0.90396627
1532.00  -2.29868767   0.90746619
1534.00  -2.31454212   0.91097494
1536.00  -2.33041551   0.91449253
1538.00  -2.34630783   0.91801896
1540.00  -2.36221909   0.92155426
1542.00  -2.37814927   0.92509843
1544.00  -2.39409837   0.92865148
1546.00  -2.41006637   0.93221342
1548.00  -2.42605328   0.93578426
1550.00  -2.44205909   0.93936401
1552.00  -2.45808379   0.94295268
1554.00  -2.47412737   0.94655027
1556.00  -2.49018983   0.95015681
1558.00  -2.50627116   0.95377230
1560.00  -2.52237135   0.95739674
1562.00  -2.53849040   0.96103016
1564.00  -2.55462830   0.96467255
1566.00  -2.57078504   0.96832393
1568.00  -2.58696063   0.97198431
1570.00  -2.60315504   0.97565370
1572.00  -2.61936828   0.97933210
1574.00  -2.63560033   0.98301953
1576.00  -2.65185120   0.98671600
1578.00  -2.66812087   0.99042152
1580.00  -2.68440934   0.99413610
1582.00  -2.70071660   0.99785974
1584.00  -2.71704264   1.00159246
1586.00  -2.73338746   1.00533426
1588.00  -2.74975106   1.00908516
1590.00  -2.76613341   1.01284517
1592.00  -2.78253453   1.01661429
1594.00  -2.79895439   1.02039253
1596.00  -2.81539300   1.02417991
1598.00  -2.83185035   1.02797644
1600.00  -2.84832643   1.03178212
1602.00  -2.86482123   1.03559697
1604.00  -2.88133475   1.03942099
1606.00  -2.89786697   1.04325419
1608.00  -2.91441791   1.04709658
1610.00  -2.93098754   1.05094818
1612.00  -2.94757586   1.05480899
1614.00  -2.96418286   1.05867902
1616.00  -2.98080854   1.06255829
1618.00  -2.99745289   1.06644680
1620.00  -3.01411590   1.07034455
1622.00  -3.03079757   1.07425157
1624.00  -3.04749789   1.07816786
1626.00  -3.06421685   1.08209343
1628.00  -3.08095444   1.08602829
1630.00  -3.09771067   1.08997245
1632.00  -3.11448552   1.09392592
1634.00  -3.13127898   1.09788870
1636.00  -3.14809105   1.10186082
1638.00  -3.16492172   1.10584227
1640.00  -3.18177099   1.10983307
1642.00  -3.19863885   1.11383322
1644.00  -3.21552528   1.11784275
1646.00  -3.23243030   1.12186165
1648.00  -3.24935387   1.12588993
1650.00  -3.26629601   1.12992761
1652.00  -3.28325670   1.13397470
1654.00  -3.30023594   1.13803120
1656.00  -3.31723372   1.14209712
1658.00  -3.33425003   1.14617248
1660.00  -3.35128487   1.15025727
1662.00  -3.36833822   1.15435153
1664.00  -3.38541009   1.15845524
1666.00  -3.40250046   1.16256843
1668.00  -3.41960933   1.16669109
1670.00  -3.43673670   1.17082325
1672.00  -3.45388254   1.17496491
1674.00  -3.47104687   1.17911607
1676.00  -3.48822966   1.18327676
1678.00  -3.50543092   1.18744697
1680.00  -3.52265063   1.19162673
1682.00  -3.53988879   1.19581603
1684.00  -3.55714540   1.20001488
1686.00  -3.57442044   1.20422330
1688.00  -3.59171390   1.20844130
1690.00  -3.60902579   1.21266889
1692.00  -3.62635610   1.21690606
1694.00  -3.64370481   1.22115284
1696.00  -3.66107192   1.22540924
1698.00  -3.67845742   1.22967526
1700.00  -3.69586131   1.23395091
1702.00  -3.71328358   1.23823620
1704.00  -3.73072423   1.24253114
1706.00  -3.74818323   1.24683575
1708.00  -3.76566060   1.25115002
1710.00  -3.78315631   1.25547397
1712.00  -3.80067037   1.25980761
1714.00  -3.81820277   1.26415095
1716.00  -3.83575349   1.26850399
1718.00  -3.85332254   1.27286676
1720.00  -3.87090990   1.27723924
1722.00  -3.88851557   1.28162147
1724.00  -3.90613954   1.28601344
1726.00  -3.92378181   1.29041516
1728.00  -3.94144236   1.29482664
1730.00  -3.95912120   1.29924790
1732.00  -3.97681830   1.30367894
1734.00  -3.99453367   1.30811977
1736.00  -4.01226730   1.31257040
1738.00  -4.03001918   1.31703084
1740.00  -4.04778931   1.32150110
1742.00  -4.06557767   1.32598118
1744.00  -4.08338426   1.33047111
1746.00  -4.10120907   1.33497088
1748.00  -4.11905210   1.33948050
1750.00  -4.13691333   1.34400000
1752.00  -4.15479277   1.34852936
1754.00  -4.17269040   1.35306861
1756.00  -4.19060622   1.35761776
1758.00  -4.20854021   1.36217680
1760.00  -4.22649238   1.36674576
1762.00  -4.24446272   1.37132463
1764.00  -4.26245121   1.37591344
1766.00  -4.28045785   1.38051218
1768.00  -4.29848263   1.38512088
1770.00  -4.31652555   1.38973953
1772.00  -4.33458660   1.39436814
1774.00  -4.35266577   1.39900674
1776.00  -4.37076305   1.40365531
1778.00  -4.38887844   1.40831388
1780.00  -4.40701193   1.41298246
1782.00  -4.42516351   1.41766104
1784.00  -4.44333317   1.42234965
1786.00  -4.46152092   1.42704829
1788.00  -4.47972673   1.43175696
1790.00  -4.49795061   1.43647569
1792.00  -4.51619254   1.44120447
1794.00  -4.53445252   1.44594332
1796.00  -4.55273054   1.45069225
1798.00  -4.57102659   1.45545126
1800.00  -4.58934067   1.46022036
1802.00  -4.60767277   1.46499957
1804.00  -4.62602288   1.46978889
1806.00  -4.64439100   1.47458833
1808.00  -4.66277711   1.47939791
1810.00  -4.68118121   1.48421762
1812.00  -4.69960330   1.48904748
1814.00  -4.71804335   1.49388749
1816.00  -4.73650138   1.49873768
1818.00  -4.75497736   1.50359803
1820.00  -4.77347130   1.50846858
1822.00  -4.79198318   1.51334931
1824.00  -4.81051300   1.51824025
1826.00  -4.82906075   1.52314140
1828.00  -4.84762643   1.52805277
1830.00  -4.86621002   1.53297437
1832.00  -4.88481151   1.53790621
1834.00  -4.90343091   1.54284830
1836.00  -4.92206820   1.54780064
1838.00  -4.94072337   1.55276325
1840.00  -4.95939643   1.55773613
1842.00  -4.97808735   1.56271929
1844.00  -4.99679614   1.56771275
1846.00  -5.01552278   1.57271651
1848.00  -5.03426727   1.57773057
1850.00  -5.05302960   1.58275496
1852.00  -5.07180977   1.58778967
1854.00  -5.09060776   1.59283472
1856.00  -5.10942357   1.59789012
1858.00  -5.12825719   1.60295587
1860.00  -5.14710861   1.60803198
1862.00  -5.16597783   1.61311847
1864.00  -5.18486484   1.61821533
1866.00  -5.20376963   1.62332259
1868.00  -5.22269219   1.62844025
1870.00  -5.24163251   1.63356831
1872.00  -5.26059060   1.63870679
1874.00  -5.27956643   1.64385569
1876.00  -5.29856001   1.64901503
1878.00  -5.31757133   1.65418481
1880.00  -5.33660037   1.65936504
1882.00  -5.35564713   1.66455574
1884.00  -5.37471160   1.66975690
1886.00  -5.39379378   1.67496854
1888.00  -5.41289366   1.68019067
1890.00  -5.43201122   1.68542329
1892.00  -5.45114647   1.69066641
1894.00  -5.47029939   1.69592005
1896.00  -5.48946998   1.70118422
1898.00  -5.50865823   1.70645891
1900.00  -5.52786413   1.71174414
1902.00  -5.54708768   1.71703992
1904.00  -5.56632886   1.72234626
1906.00  -5.58558767   1.72766316
1908.00  -5.60486410   1.73299064
1910.00  -5.62415815   1.73832870
1912.00  -5.64346980   1.74367735
1914.00  -5.66279905   1.74903660
1916.00  -5.68214589   1.75440646
1918.00  -5.70151031   1.75978694
1920.00  -5.72089231   1.76517804
1922.00  -5.74029188   1.77057978
1924.00  -5.75970901   1.77599216
1926.00  -5.77914368   1.78141520
1928.00  -5.79859591   1.78684890
1930.00  -5.81806566   1.79229326
1932.00  -5.83755295   1.79774831
1934.00  -5.85705776   1.80321404
1936.00  -5.87658009   1.80869046
1938.00  -5.89611991   1.81417760
1940.00  -5.91567724   1.81967544
1942.00  -5.93525206   1.82518400
1944.00  -5.95484436   1.83070330
1946.00  -5.97445414   1.83623333
1948.00  -5.99408138   1.84177411
1950.00  -6.01372608   1.84732565
1952.00  -6.03338823   1.85288795
1954.00  -6.05306783   1.85846102
1956.00  -6.07276486   1.86404488
1958.00  -6.09247932   1.86963952
1960.00  -6.11221121   1.87524496
1962.00  -6.13196050   1.88086121
1964.00  -6.15172720   1.88648828
1966.00  -6.17151130   1.89212617
1968.00  -6.19131279   1.89777489
1970.00  -6.21113165   1.90343445
1972.00  -6.23096790   1.90910486
1974.00  -6.25082150   1.91478613
1976.00  -6.27069247   1.92047827
1978.00  -6.29058078   1.92618128
1980.00  -6.31048644   1.93189517
1982.00  -6.33040944   1.93761996
1984.00  -6.35034975   1.94335564
1986.00  -6.37030739   1.94910224
1988.00  -6.39028234   1.95485975
1990.00  -6.41027460   1.96062819
1992.00  -6.43028414   1.96640756
1994.00  -6.45031098   1.97219787
1996.00  -6.47035509   1.97799914
1998.00  -6.49041648   1.98381136
2000.00  -6.51049513   1.98963455
2002.00  -6.53059104   1.99546872
2004.00  -6.55070419   2.00131387
2006.00  -6.57083458   2.00717002
2008.00  -6.59098221   2.01303716
2010.00  -6.61114706   2.01891532
2012.00  -6.63132913   2.02480449
2014.00  -6.65152840   2.03070469
2016.00  -6.67174488   2.03661593
2018.00  -6.69197854   2.04253820
2020.00  -6.71222940   2.04847153
2022.00  -6.73249743   2.05441592
2024.00  -6.75278262   2.06037137
2026.00  -6.77308498   2.06633790
2028.00  -6.79340450   2.07231552
2030.00  -6.81374115   2.07830423
2032.00  -6.83409494   2.08430404
2034.00  -6.85446587   2.09031496
2036.00  -6.87485391   2.09633699
2038.00  -6.89525907   2.10237015
2040.00  -6.91568133   2.10841445
2042.00  -6.93612068   2.11446989
2044.00  -6.95657713   2.12053648
2046.00  -6.97705066   2.12661422
2048.00  -6.99754126   2.13270314
2050.00  -7.01804892   2.13880323
2052.00  -7.03857365   2.14491450
2054.00  -7.05911542   2.15103697
2056.00  -7.07967423   2.15717063
2058.00  -7.10025008   2.16331550
2060.00  -7.12084295   2.16947159
2062.00  -7.14145283   2.17563890
2064.00  -7.16207973   2.18181745
2066.00  -7.18272362   2.18800724
2068.00  -7.20338451   2.19420827
2070.00  -7.22406238   2.20042056
2072.00  -7.24475723   2.20664412
2074.00  -7.26546905   2.21287895
2076.00  -7.28619783   2.21912506
2078.00  -7.30694356   2.22538247
2080.00  -7.32770623   2.23165116
2082.00  -7.34848584   2.23793117
2084.00  -7.36928238   2.24422249
2086.00  -7.39009584   2.25052513
2088.00  -7.41092621   2.25683910
2090.00  -7.43177349   2.26316441
2092.00  -7.45263765   2.26950106
2094.00  -7.47351871   2.27584907
2096.00  -7.49441665   2.28220844
2098.00  -7.51533145   2.28857919
2100.00  -7.53626312   2.29496131
2102.00  -7.55721165   2.30135481
2104.00  -7.57817702   2.30775971
2106.00  -7.59915923   2.31417602
2108.00  -7.62015827   2.32060373
2110.00  -7.64117414   2.32704286
2112.00  -7.66220681   2.33349342
2114.00  -7.68325630   2.33995542
2116.00  -7.70432258   2.34642885
2118.00  -7.72540565   2.35291374
2120.00  -7.74650550   2.35941008
2122.00  -7.76762212   2.36591789
2124.00  -7.78875552   2.37243718
2126.00  -7.80990566   2.37896795
2128.00  -7.83107256   2.38551020
2130.00  -7.85225619   2.39206396
2132.00  -7.87345656   2.39862922
2134.00  -7.89467366   2.40520600
2136.00  -7.91590746   2.41179429
2138.00  -7.93715798   2.41839412
2140.00  -7.95842520   2.42500549
2142.00  -7.97970910   2.43162840
2144.00  -8.00100969   2.43826286
2146.00  -8.02232696   2.44490889
2148.00  -8.04366089   2.45156648
2150.00  -8.06501148   2.45823565
2152.00  -8.08637872   2.46491641
2154.00  -8.10776260   2.47160876
2156.00  -8.12916311   2.47831271
2158.00  -8.15058025   2.48502827
2160.00  -8.17201401   2.49175544
2162.00  -8.19346437   2.49849424
2164.00  -8.21493134   2.50524467
2166.00  -8.23641489   2.51200674
2168.00  -8.25791503   2.51878046
2170.00  -8.27943175   2.52556583
2172.00  -8.30096503   2.53236287
2174.00  -8.32251488   2.53917158
2176.00  -8.34408127   2.54599196
2178.00  -8.36566420   2.55282404
2180.00  -8.38726367   2.55966780
2182.00  -8.40887967   2.56652327
2184.00  -8.43051218   2.57339045
2186.00  -8.45216120   2.58026934
2188.00  -8.47382672   2.58715996
2190.00  -8.49550874   2.59406231
2192.00  -8.51720723   2.60097641
2194.00  -8.53892221   2.60790225
2196.00  -8.56065365   2.61483985
2198.00  -8.58240155   2.62178921
2200.00  -8.60416590   2.62875034
2202.00  -8.62594669   2.63572325
2204.00  -8.64774392   2.64270795
2206.00  -8.66955757   2.64970444
2208.00  -8.69138764   2.65671273
2210.00  -8.71323411   2.66373284
2212.00  -8.73509699   2.67076476
2214.00  -8.75697626   2.67780850
2216.00  -8.77887191   2.68486408
2218.00  -8.80078394   2.69193150
2220.00  -8.82271234   2.69901076
2222.00  -8.84465709   2.70610188
2224.00  -8.86661819   2.71320486
2226.00  -8.88859564   2.72031972
2228.00  -8.91058941   2.72744645
2230.00  -8.93259952   2.73458507
2232.00  -8.95462594   2.74173558
2234.00  -8.97666866   2.74889799
2236.00  -8.99872769   2.75607231
2238.00  -9.02080300   2.76325854
2240.00  -9.04289460   2.77045670
2242.00  -9.06500247   2.77766679
2244.00  -9.08712661   2.78488882
2246.00  -9.10926701   2.79212279
2248.00  -9.13142365   2.79936871
2250.00  -9.15359654   2.80662660
2252.00  -9.17578565   2.81389646
2254.00  -9.19799099   2.82117829
2256.00  -9.22021255   2.82847210
2258.00  -9.24245031   2.83577791
2260.00  -9.26470426   2.84309571
2262.00  -9.28697441   2.85042552
2264.00  -9.30926074   2.85776734
2266.00  -9.33156324   2.86512119
2268.00  -9.35388190   2.87248706
2270.00  -9.37621672   2.87986496
2272.00  -9.39856769   2.88725491
2274.00  -9.42093479   2.89465691
2276.00  -9.44331803   2.90207097
2278.00  -9.46571738   2.90949709
2280.00  -9.48813285   2.91693529
2282.00  -9.51056443   2.92438556
2284.00  -9.53301209   2.93184792
2286.00  -9.55547585   2.93932238
2288.00  -9.57795568   2.94680893
2290.00  -9.60045159   2.95430760
2292.00  -9.62296355   2.96181838
2294.00  -9.64549157   2.96934129
2296.00  -9.66803563   2.97687633
2298.00  -9.69059573   2.98442351
2300.00  -9.71317185   2.99198283
2302.00  -9.73576400   2.99955431
2304.00  -9.75837215   3.00713794
2306.00  -9.78099631   3.01473375
2308.00  -9.80363646   3.02234173
2310.00  -9.82629259   3.02996189
2312.00  -9.84896470   3.03759424
2314.00  -9.87165277   3.04523879
2316.00  -9.89435681   3.05289554
2318.00  -9.91707679   3.06056450
2320.00  -9.93981272   3.06824568
2322.00  -9.96256457   3.07593909
2324.00  -9.98533236   3.08364473
2326.00 -10.00811605   3.09136261
2328.00 -10.03091566   3.09909274
2330.00 -10.05373116   3.10683512
2332.00 -10.07656255   3.11458977
2334.00 -10.09940983   3.12235668
2336.00 -10.12227297   3.13013587
2338.00 -10.14515198   3.13792734
2340.00 -10.16804685   3.14573111
2342.00 -10.19095756   3.15354717
2344.00 -10.21388411   3.16137554
2346.00 -10.23682649   3.16921621
2348.00 -10.25978468   3.17706921
2350.00 -10.28275869   3.18493453
2352.00 -10.30574851   3.19281219
2354.00 -10.32875411   3.20070219
2356.00 -10.35177551   3.20860453
2358.00 -10.37481268   3.21651923
2360.00 -10.39786562   3.22444629
2362.00 -10.42093432   3.23238572
2364.00 -10.44401876   3.24033753
2366.00 -10.46711896   3.24830172
2368.00 -10.49023488   3.25627830
2370.00 -10.51336653   3.26426727
2372.00 -10.53651390   3.27226865
2374.00 -10.55967697   3.28028244
2376.00 -10.58285575   3.28830865
2378.00 -10.60605021   3.29634729
2380.00 -10.62926035   3.30439835
2382.00 -10.65248617   3.31246186
2384.00 -10.67572765   3.32053781
2386.00 -10.69898479   3.32862622
2388.00 -10.72225757   3.33672708
2390.00 -10.74554599   3.34484041
2392.00 -10.76885004   3.35296622
2394.00 -10.79216971   3.36110451
2396.00 -10.81550499   3.36925528
2398.00 -10.83885588   3.37741855
2400.00 -10.86222236   3.38559433
2402.00 -10.88560442   3.39378261
2404.00 -10.90900206   3.40198340
2406.00 -10.93241527   3.41019672
2408.00 -10.95584403   3.41842257
2410.00 -10.97928835   3.42666096
2412.00 -11.00274821   3.43491189
2414.00 -11.02622360   3.44317537
2416.00 -11.04971451   3.45145140
2418.00 -11.07322094   3.45974000
2420.00 -11.09674288   3.46804118
2422.00 -11.12028031   3.47635493
2424.00 -11.14383323   3.48468126
2426.00 -11.16740163   3.49302018
2428.00 -11.19098551   3.50137171
2430.00 -11.21458484   3.50973584
2432.00 -11.23819963   3.51811258
2434.00 -11.26182986   3.52650194
2436.00 -11.28547553   3.53490392
2438.00 -11.30913663   3.54331854
2440.00 -11.33281314   3.55174579
2442.00 -11.35650506   3.56018570
2444.00 -11.38021239   3.56863825
2446.00 -11.40393510   3.57710346
2448.00 -11.42767320   3.58558134
2450.00 -11.45142667   3.59407190
2452.00 -11.47519551   3.60257513
2454.00 -11.49897970   3.61109105
2456.00 -11.52277924   3.61961966
2458.00 -11.54659412   3.62816097
2460.00 -11.57042433   3.63671499
2462.00 -11.59426986   3.64528172
2464.00 -11.61813070   3.65386118
2466.00 -11.64200685   3.66245335
2468.00 -11.66589829   3.67105827
2470.00 -11.68980501   3.67967592
2472.00 -11.71372701   3.68830632
2474.00 -11.73766428   3.69694947
2476.00 -11.76161681   3.70560538
2478.00 -11.78558459   3.71427406
2480.00 -11.80956761   3.72295551
2482.00 -11.83356586   3.73164974
2484.00 -11.85757933   3.74035676
2486.00 -11.88160802   3.74907657
2488.00 -11.90565191   3.75780918
2490.00 -11.92971100   3.76655460
2492.00 -11.95378528   3.77531283
2494.00 -11.97787473   3.78408388
2496.00 -12.00197936   3.79286775
2498.00 -12.02609914   3.80166446
2500.00 -12.05023408   3.81047401
2502.00 -12.07438416   3.81929640
2504.00 -12.09854938   3.82813165
2506.00 -12.12272972   3.83697975
2508.00 -12.14692517   3.84584072
2510.00 -12.17113573   3.85471456
2512.00 -12.19536140   3.86360128
2514.00 -12.21960215   3.87250089
2516.00 -12.24385798   3.88141338
2518.00 -12.26812888   3.89033878
2520.00 -12.29241484   3.89927707
2522.00 -12.31671586   3.90822828
2524.00 -12.34103192   3.91719241
2526.00 -12.36536302   3.92616946
2528.00 -12.38970914   3.93515944
2530.00 -12.41407029   3.94416236
2532.00 -12.43844644   3.95317822
2534.00 -12.46283759   3.96220703
2536.00 -12.48724373   3.97124880
2538.00 -12.51166485   3.98030352
2540.00 -12.53610095   3.98937122
2542.00 -12.56055200   3.99845189
2544.00 -12.58501802   4.00754555
2546.00 -12.60949898   4.01665219
2548.00 -12.63399487   4.02577183
2550.00 -12.65850570   4.03490446
2552.00 -12.68303144   4.04405011
2554.00 -12.70757209   4.05320876
2556.00 -12.73212764   4.06238044
2558.00 -12.75669809   4.07156515
2560.00 -12.78128341   4.08076288
2562.00 -12.80588361   4.08997366
2564.00 -12.83049868   4.09919748
2566.00 -12.85512860   4.10843435
2568.00 -12.87977337   4.11768428
2570.00 -12.90443297   4.12694727
2572.00 -12.92910740   4.13622333
2574.00 -12.95379666   4.14551247
2576.00 -12.97850072   4.15481470
2578.00 -13.00321958   4.16413001
2580.00 -13.02795324   4.17345842
2582.00 -13.05270168   4.18279992
2584.00 -13.07746489   4.19215454
2586.00 -13.10224287   4.20152227
2588.00 -13.12703561   4.21090312
2590.00 -13.15184309   4.22029710
2592.00 -13.17666531   4.22970421
2594.00 -13.20150226   4.23912446
2596.00 -13.22635393   4.24855786
2598.00 -13.25122031   4.25800440
2600.00 -13.27610139   4.26746410
2602.00 -13.30099716   4.27693697
2604.00 -13.32590762   4.28642301
2606.00 -13.35083275   4.29592222
2608.00 -13.37577255   4.30543462
2610.00 -13.40072700   4.31496020
2612.00 -13.42569610   4.32449898
2614.00 -13.45067984   4.33405096
2616.00 -13.47567821   4.34361614
2618.00 -13.50069119   4.35319454
2620.00 -13.52571879   4.36278616
2622.00 -13.55076099   4.37239100
2624.00 -13.57581778   4.38200907
2626.00 -13.60088916   4.39164038
2628.00 -13.62597511   4.40128493
2630.00 -13.65107562   4.41094274
2632.00 -13.67619069   4.42061379
2634.00 -13.70132031   4.43029811
2636.00 -13.72646447   4.43999570
2638.00 -13.75162315   4.44970656
2640.00 -13.77679636   4.45943070
2642.00 -13.80198407   4.46916813
2644.00 -13.82718629   4.47891884
2646.00 -13.85240299   4.48868286
2648.00 -13.87763419   4.49846017
2650.00 -13.90287985   4.50825080
2652.00 -13.92813998   4.51805474
2654.00 -13.95341456   4.52787201
2656.00 -13.97870360   4.53770260
2658.00 -14.00400706   4.54754653
2660.00 -14.02932496   4.55740379
2662.00 -14.05465728   4.56727440
2664.00 -14.08000400   4.57715836
2666.00 -14.10536513   4.58705568
2668.00 -14.13074065   4.59696636
2670.00 -14.15613055   4.60689041
2672.00 -14.18153482   4.61682783
2674.00 -14.20695346   4.62677864
2676.00 -14.23238645   4.63674283
2678.00 -14.25783379   4.64672042
2680.00 -14.28329546   4.65671140
2682.00 -14.30877146   4.66671579
2684.00 -14.33426178   4.67673359
2686.00 -14.35976641   4.68676480
2688.00 -14.38528533   4.69680944
2690.00 -14.41081855   4.70686750
2692.00 -14.43636605   4.71693900
2694.00 -14.46192782   4.72702393
2696.00 -14.48750386   4.73712231
2698.00 -14.51309414   4.74723415
2700.00 -14.53869868   4.75735944
2702.00 -14.56431744   4.76749819
2704.00 -14.58995044   4.77765041
2706.00 -14.61559765   4.78781610
2708.00 -14.64125906   4.79799527
2710.00 -14.66693468   4.80818793
2712.00 -14.69262448   4.81839408
2714.00 -14.71832847   4.82861373
2716.00 -14.74404662   4.83884688
2718.00 -14.76977894   4.84909354
2720.00 -14.79552541   4.85935371
2722.00 -14.82128602   4.86962741
2724.00 -14.84706077   4.87991463
2726.00 -14.87284964   4.89021538
2728.00 -14.89865263   4.90052967
2730.00 -14.92446972   4.91085750
2732.00 -14.95030091   4.92119887
2734.00 -14.97614618   4.93155381
2736.00 -15.00200554   4.94192230
2738.00 -15.02787896   4.95230436
2740.00 -15.05376644   4.96269999
2742.00 -15.07966798   4.97310919
2744.00 -15.10558355   4.98353198
2746.00 -15.13151316   4.99396836
2748.00 -15.15745679   5.00441833
2750.00 -15.18341443   5.01488190
2752.00 -15.20938608   5.02535907
2754.00 -15.23537172   5.03584985
2756.00 -15.26137135   5.04635425
2758.00 -15.28738495   5.05687227
2760.00 -15.31341252   5.06740392
2762.00 -15.33945405   5.07794920
2764.00 -15.36550953   5.08850812
2766.00 -15.39157895   5.09908069
2768.00 -15.41766229   5.10966690
2770.00 -15.44375956   5.12026677
2772.00 -15.46987074   5.13088029
2774.00 -15.49599582   5.14150749
2776.00 -15.52213480   5.15214835
2778.00 -15.54828765   5.16280289
2780.00 -15.57445438   5.17347111
2782.00 -15.60063498   5.18415303
2784.00 -15.62682943   5.19484863
2786.00 -15.65303773   5.20555793
2788.00 -15.67925987   5.21628094
2790.00 -15.70549583   5.22701766
2792.00 -15.73174561   5.23776809
2794.00 -15.75800920   5.24853224
2796.00 -15.78428659   5.25931012
2798.00 -15.81057777   5.27010173
2800.00 -15.83688273   5.28090708
2802.00 -15.86320146   5.29172617
2804.00 -15.88953396   5.30255900
2806.00 -15.91588021   5.31340559
2808.00 -15.94224020   5.32426594
2810.00 -15.96861393   5.33514005
2812.00 -15.99500138   5.34602793
2814.00 -16.02140255   5.35692959
2816.00 -16.04781742   5.36784502
2818.00 -16.07424599   5.37877424
2820.00 -16.10068825   5.38971726
2822.00 -16.12714419   5.40067406
2824.00 -16.15361379   5.41164467
2826.00 -16.18009706   5.42262908
2828.00 -16.20659398   5.43362731
2830.00 -16.23310453   5.44463935
2832.00 -16.25962872   5.45566522
2834.00 -16.28616653   5.46670491
2836.00 -16.31271796   5.47775844
2838.00 -16.33928298   5.48882580
2840.00 -16.36586161   5.49990701
2842.00 -16.39245381   5.51100206
2844.00 -16.41905960   5.52211097
2846.00 -16.44567894   5.53323374
2848.00 -16.47231185   5.54437038
2850.00 -16.49895830   5.55552088
2852.00 -16.52561829   5.56668526
2854.00 -16.55229181   5.57786351
2856.00 -16.57897885   5.58905566
2858.00 -16.60567940   5.60026169
2860.00 -16.63239345   5.61148162
2862.00 -16.65912099   5.62271545
2864.00 -16.68586201   5.63396318
2866.00 -16.71261650   5.64522483
2868.00 -16.73938446   5.65650039
2870.00 -16.76616587   5.66778988
2872.00 -16.79296073   5.67909329
2874.00 -16.81976902   5.69041063
2876.00 -16.84659073   5.70174191
2878.00 -16.87342586   5.71308713
2880.00 -16.90027440   5.72444630
2882.00 -16.92713633   5.73581942
2884.00 -16.95401166   5.74720650
2886.00 -16.98090036   5.75860754
2888.00 -17.00780243   5.77002255
2890.00 -17.03471786   5.78145153
2892.00 -17.06164664   5.79289448
2894.00 -17.08858876   5.80435142
2896.00 -17.11554421   5.81582235
2898.00 -17.14251298   5.82730727
2900.00 -17.16949507   5.83880619
2902.00 -17.19649046   5.85031911
2904.00 -17.22349914   5.86184603
2906.00 -17.25052111   5.87338698
2908.00 -17.27755635   5.88494193
2910.00 -17.30460486   5.89651091
2912.00 -17.33166662   5.90809392
2914.00 -17.35874163   5.91969096
2916.00 -17.38582988   5.93130204
2918.00 -17.41293135   5.94292716
2920.00 -17.44004605   5.95456633
2922.00 -17.46717395   5.96621955
2924.00 -17.49431505   5.97788683
2926.00 -17.52146934   5.98956817
2928.00 -17.54863681   6.00126358
2930.00 -17.57581745   6.01297306
2932.00 -17.60301126   6.02469661
2934.00 -17.63021821   6.03643425
2936.00 -17.65743831   6.04818598
2938.00 -17.68467155   6.05995180
2940.00 -17.71191790   6.07173171
2942.00 -17.73917737   6.08352573
2944.00 -17.76644995   6.09533385
2946.00 -17.79373562   6.10715608
2948.00 -17.82103438   6.11899243
2950.00 -17.84834621   6.13084290
2952.00 -17.87567111   6.14270750
2954.00 -17.90300907   6.15458622
2956.00 -17.93036008   6.16647908
2958.00 -17.95772412   6.17838608
2960.00 -17.98510120   6.19030723
2962.00 -18.01249129   6.20224253
2964.00 -18.03989439   6.21419198
2966.00 -18.06731050   6.22615559
2968.00 -18.09473960   6.23813336
2970.00 -18.12218168   6.25012530
2972.00 -18.14963673   6.26213142
2974.00 -18.17710474   6.27415171
2976.00 -18.20458571   6.28618619
2978.00 -18.23207962   6.29823486
2980.00 -18.25958647   6.31029771
2982.00 -18.28710624   6.32237477
2984.00 -18.31463892   6.33446603
2986.00 -18.34218452   6.34657149
2988.00 -18.36974301   6.35869117
2990.00 -18.39731438   6.37082506
2992.00 -18.42489864   6.38297317
2994.00 -18.45249576   6.39513550
2996.00 -18.48010574   6.40731207
2998.00 -18.50772857   6.41950287
3000.00 -18.53536424   6.43170791
3002.00 -18.56301274   6.44392720
3004.00 -18.59067406   6.45616073
3006.00 -18.61834819   6.46840852
3008.00 -18.64603513   6.48067056
3010.00 -18.67373485   6.49294687
3012.00 -18.70144736   6.50523744
3014.00 -18.72917264   6.51754229
3016.00 -18.75691069   6.52986141
3018.00 -18.78466149   6.54219481
3020.00 -18.81242503   6.55454250
3022.00 -18.84020131   6.56690447
3024.00 -18.86799031   6.57928075
3026.00 -18.89579204   6.59167132
3028.00 -18.92360646   6.60407619
3030.00 -18.95143359   6.61649537
3032.00 -18.97927340   6.62892887
3034.00 -19.00712589   6.64137668
3036.00 -19.03499105   6.65383881
3038.00 -19.06286887   6.66631527
3040.00 -19.09075933   6.67880606
3042.00 -19.11866244   6.69131119
3044.00 -19.14657818   6.70383065
3046.00 -19.17450654   6.71636446
3048.00 -19.20244751   6.72891262
3050.00 -19.23040108   6.74147513
3052.00 -19.25836724   6.75405200
3054.00 -19.28634599   6.76664323
3056.00 -19.31433731   6.77924882
3058.00 -19.34234120   6.79186879
3060.00 -19.37035763   6.80450313
3062.00 -19.39838662   6.81715185
3064.00 -19.42642814   6.82981496
3066.00 -19.45448218   6.84249245
3068.00 -19.48254874   6.85518433
3070.00 -19.51062781   6.86789062
3072.00 -19.53871937   6.88061130
3074.00 -19.56682342   6.89334639
3076.00 -19.59493995   6.90609589
3078.00 -19.62306895   6.91885981
3080.00 -19.65121041   6.93163814
3082.00 -19.67936431   6.94443090
3084.00 -19.70753066   6.95723808
3086.00 -19.73570943   6.97005970
3088.00 -19.76390063   6.98289575
3090.00 -19.79210424   6.99574624
3092.00 -19.82032025   7.00861118
3094.00 -19.84854865   7.02149057
3096.00 -19.87678943   7.03438441
3098.00 -19.90504259   7.04729271
3100.00 -19.93330811   7.06021547
3102.00 -19.96158599   7.07315269
3104.00 -19.98987621   7.08610439
3106.00 -20.01817876   7.09907056
3108.00 -20.04649364   7.11205121
3110.00 -20.07482083   7.12504634
3112.00 -20.10316033   7.13805596
3114.00 -20.13151213   7.15108007
3116.00 -20.15987621   7.16411867
3118.00 -20.18825257   7.17717178
3120.00 -20.21664120   7.19023939
3122.00 -20.24504209   7.20332151
3124.00 -20.27345523   7.21641814
3126.00 -20.30188060   7.22952929
3128.00 -20.33031821   7.24265496
3130.00 -20.35876803   7.25579515
3132.00 -20.38723007   7.26894987
3134.00 -20.41570430   7.28211913
3136.00 -20.44419073   7.29530292
3138.00 -20.47268934   7.30850126
3140.00 -20.50120012   7.32171414
3142.00 -20.52972306   7.33494157
3144.00 -20.55825816   7.34818355
3146.00 -20.58680540   7.36144009
3148.00 -20.61536477   7.37471119
3150.00 -20.64393627   7.38799686
3152.00 -20.67251988   7.40129710
3154.00 -20.70111560   7.41461191
3156.00 -20.72972342   7.42794130
3158.00 -20.75834332   7.44128528
3160.00 -20.78697529   7.45464384
3162.00 -20.81561934   7.46801699
3164.00 -20.84427544   7.48140473
3166.00 -20.87294358   7.49480707
3168.00 -20.90162377   7.50822402
3170.00 -20.93031598   7.52165557
3172.00 -20.95902022   7.53510173
3174.00 -20.98773646   7.54856251
3176.00 -21.01646470   7.56203790
3178.00 -21.04520493   7.57552791
3180.00 -21.07395715   7.58903256
3182.00 -21.10272133   7.60255183
3184.00 -21.13149748   7.61608574
3186.00 -21.16028557   7.62963428
3188.00 -21.18908561   7.64319747
3190.00 -21.21789758   7.65677530
3192.00 -21.24672148   7.67036778
3194.00 -21.27555729   7.68397492
3196.00 -21.30440500   7.69759671
3198.00 -21.33326461   7.71123317
3200.00 -21.36213610   7.72488429
3202.00 -21.39101946   7.73855007
3204.00 -21.41991469   7.75223054
3206.00 -21.44882178   7.76592568
3208.00 -21.47774071   7.77963550
3210.00 -21.50667149   7.79336000
3212.00 -21.53561408   7.80709920
3214.00 -21.56456850   7.82085308
3216.00 -21.59353472   7.83462167
3218.00 -21.62251274   7.84840495
3220.00 -21.65150255   7.86220293
3222.00 -21.68050414   7.87601563
3224.00 -21.70951750   7.88984303
3226.00 -21.73854262   7.90368515
3228.00 -21.76757948   7.91754199
3230.00 -21.79662809   7.93141355
3232.00 -21.82568843   7.94529984
3234.00 -21.85476049   7.95920086
3236.00 -21.88384427   7.97311662
3238.00 -21.91293974   7.98704711
3240.00 -21.94204691   8.00099234
3242.00 -21.97116576   8.01495232
3244.00 -22.00029629   8.02892704
3246.00 -22.02943847   8.04291652
3248.00 -22.05859232   8.05692076
3250.00 -22.08775780   8.07093975
3252.00 -22.11693492   8.08497351
3254.00 -22.14612367   8.09902204
3256.00 -22.17532404   8.11308534
3258.00 -22.20453600   8.12716341
3260.00 -22.23375957   8.14125626
3262.00 -22.26299472   8.15536389
3264.00 -22.29224145   8.16948631
3266.00 -22.32149975   8.18362352
3268.00 -22.35076961   8.19777552
3270.00 -22.38005101   8.21194232
3272.00 -22.40934395   8.22612392
3274.00 -22.43864843   8.24032032
3276.00 -22.46796442   8.25453153
3278.00 -22.49729192   8.26875755
3280.00 -22.52663092   8.28299839
3282.00 -22.55598141   8.29725404
3284.00 -22.58534339   8.31152452
3286.00 -22.61471683   8.32580982
3288.00 -22.64410174   8.34010995
3290.00 -22.67349810   8.35442491
3292.00 -22.70290590   8.36875471
3294.00 -22.73232514   8.38309935
3296.00 -22.76175580   8.39745883
3298.00 -22.79119787   8.41183315
3300.00 -22.82065135   8.42622233
3302.00 -22.85011622   8.44062636
3304.00 -22.87959248   8.45504525
3306.00 -22.90908011   8.46947900
3308.00 -22.93857911   8.48392761
3310.00 -22.96808946   8.49839109
3312.00 -22.99761116   8.51286944
3314.00 -23.02714420   8.52736267
3316.00 -23.05668856   8.54187077
3318.00 -23.08624425   8.55639376
3320.00 -23.11581124   8.57093163
3322.00 -23.14538953   8.58548439
3324.00 -23.17497910   8.60005204
3326.00 -23.20457996   8.61463458
3328.00 -23.23419209   8.62923202
3330.00 -23.26381547   8.64384437
3332.00 -23.29345011   8.65847162
3334.00 -23.32309598   8.67311378
3336.00 -23.35275309   8.68777085
3338.00 -23.38242142   8.70244284
3340.00 -23.41210096   8.71712974
3342.00 -23.44179170   8.73183157
3344.00 -23.47149364   8.74654832
3346.00 -23.50120676   8.76128000
3348.00 -23.53093105   8.77602662
3350.00 -23.56066651   8.79078816
3352.00 -23.59041312   8.80556465
3354.00 -23.62017087   8.82035608
3356.00 -23.64993976   8.83516246
3358.00 -23.67971977   8.84998378
3360.00 -23.70951090   8.86482006
3362.00 -23.73931313   8.87967129
3364.00 -23.76912647   8.89453748
3366.00 -23.79895088   8.90941863
3368.00 -23.82878638   8.92431474
3370.00 -23.85863294   8.93922583
3372.00 -23.88849056   8.95415188
3374.00 -23.91835923   8.96909292
3376.00 -23.94823894   8.98404892
3378.00 -23.97812967   8.99901991
3380.00 -24.00803143   9.01400589
3382.00 -24.03794419   9.02900685
3384.00 -24.06786795   9.04402280
3386.00 -24.09780271   9.05905375
3388.00 -24.12774844   9.07409969
3390.00 -24.15770515   9.08916064
3392.00 -24.18767282   9.10423659
3394.00 -24.21765144   9.11932754
3396.00 -24.24764100   9.13443351
3398.00 -24.27764149   9.14955448
3400.00 -24.30765291   9.16469048
3402.00 -24.33767524   9.17984149
3404.00 -24.36770848   9.19500753
3406.00 -24.39775261   9.21018859
3408.00 -24.42780762   9.22538468
3410.00 -24.45787351   9.24059580
3412.00 -24.48795026   9.25582195
3414.00 -24.51803787   9.27106315
3416.00 -24.54813632   9.28631938
3418.00 -24.57824561   9.30159066
3420.00 -24.60836573   9.31687699
3422.00 -24.63849666   9.33217837
3424.00 -24.66863841   9.34749480
3426.00 -24.69879095   9.36282628
3428.00 -24.72895427   9.37817283
3430.00 -24.75912838   9.39353444
3432.00 -24.78931326   9.40891111
3434.00 -24.81950889   9.42430285
3436.00 -24.84971527   9.43970966
3438.00 -24.87993240   9.45513155
3440.00 -24.91016025   9.47056852
3442.00 -24.94039883   9.48602056
3444.00 -24.97064812   9.50148769
3446.00 -25.00090810   9.51696991
3448.00 -25.03117878   9.53246721
3450.00 -25.06146015   9.54797961
3452.00 -25.09175218   9.56350710
3454.00 -25.12205488   9.57904969
3456.00 -25.15236823   9.59460738
3458.00 -25.18269222   9.61018017
3460.00 -25.21302685   9.62576808
3462.00 -25.24337211   9.64137109
3464.00 -25.27372798   9.65698921
3466.00 -25.30409445   9.67262245
3468.00 -25.33447152   9.68827081
3470.00 -25.36485917   9.70393429
3472.00 -25.39525741   9.71961290
3474.00 -25.42566621   9.73530663
3476.00 -25.45608556   9.75101549
3478.00 -25.48651546   9.76673949
3480.00 -25.51695591   9.78247862
3482.00 -25.54740687   9.79823289
3484.00 -25.57786836   9.81400230
3486.00 -25.60834036   9.82978685
3488.00 -25.63882286   9.84558655
3490.00 -25.66931584   9.86140141
3492.00 -25.69981931   9.87723141
3494.00 -25.73033325   9.89307657
3496.00 -25.76085764   9.90893689
3498.00 -25.79139249   9.92481237
3500.00 -25.82193778   9.94070301
3502.00 -25.85249351   9.95660882
3504.00 -25.88305965   9.97252980
3506.00 -25.91363621   9.98846595
3508.00 -25.94422317  10.00441728
3510.00 -25.97482053  10.02038378
3512.00 -26.00542827  10.03636546
3514.00 -26.03604638  10.05236233
3516.00 -26.06667486  10.06837438
3518.00 -26.09731369  10.08440162
3520.00 -26.12796287  10.10044405
3522.00 -26.15862238  10.11650168
3524.00 -26.18929223  10.13257450
3526.00 -26.21997238  10.14866253
3528.00 -26.25066285  10.16476575
3530.00 -26.28136361  10.18088418
3532.00 -26.31207466  10.19701781
3534.00 -26.34279599  10.21316666
3536.00 -26.37352758  10.22933072
3538.00 -26.40426944  10.24550999
3540.00 -26.43502154  10.26170448
3542.00 -26.46578389  10.27791419
3544.00 -26.49655646  10.29413913
3546.00 -26.52733926  10.31037929
3548.00 -26.55813226  10.32663467
3550.00 -26.58893547  10.34290529
3552.00 -26.61974887  10.35919114
3554.00 -26.65057245  10.37549223
3556.00 -26.68140620  10.39180856
3558.00 -26.71225012  10.40814013
3560.00 -26.74310419  10.42448694
3562.00 -26.77396840  10.44084900
3564.00 -26.80484275  10.45722630
3566.00 -26.83572722  10.47361886
3568.00 -26.86662180  10.49002668
3570.00 -26.89752650  10.50644974
3572.00 -26.92844128  10.52288807
3574.00 -26.95936616  10.53934166
3576.00 -26.99030111  10.55581051
3578.00 -27.02124612  10.57229463
3580.00 -27.05220119  10.58879402
3582.00 -27.08316632  10.60530868
3584.00 -27.11414147  10.62183861
3586.00 -27.14512666  10.63838382
3588.00 -27.17612187  10.65494431
3590.00 -27.20712708  10.67152008
3592.00 -27.23814230  10.68811113
3594.00 -27.26916750  10.70471747
3596.00 -27.30020269  10.72133910
3598.00 -27.33124784  10.73797602
3600.00 -27.36230296  10.75462823
3602.00 -27.39336803  10.77129574
3604.00 -27.42444304  10.78797854
3606.00 -27.45552798  10.80467665
3608.00 -27.48662284  10.82139006
3610.00 -27.51772762  10.83811877
3612.00 -27.54884231  10.85486279
3614.00 -27.57996688  10.87162213
3616.00 -27.61110134  10.88839677
3618.00 -27.64224568  10.90518673
3620.00 -27.67339988  10.92199201
3622.00 -27.70456394  10.93881260
3624.00 -27.73573784  10.95564852
3626.00 -27.76692158  10.97249976
3628.00 -27.79811514  10.98936633
3630.00 -27.82931852  11.00624823
3632.00 -27.86053172  11.02314546
3634.00 -27.89175470  11.04005802
3636.00 -27.92298748  11.05698591
3638.00 -27.95423004  11.07392915
3640.00 -27.98548236  11.09088772
3642.00 -28.01674445  11.10786164
3644.00 -28.04801628  11.12485090
3646.00 -28.07929786  11.14185551
3648.00 -28.11058917  11.15887547
3650.00 -28.14189019  11.17591078
3652.00 -28.17320093  11.19296144
3654.00 -28.20452138  11.21002746
3656.00 -28.23585151  11.22710884
3658.00 -28.26719133  11.24420558
3660.00 -28.29854082  11.26131768
3662.00 -28.32989998  11.27844514
3664.00 -28.36126879  11.29558797
3666.00 -28.39264724  11.31274617
3668.00 -28.42403533  11.32991975
3670.00 -28.45543305  11.34710869
3672.00 -28.48684038  11.36431301
3674.00 -28.51825732  11.38153271
3676.00 -28.54968385  11.39876779
3678.00 -28.58111998  11.41601825
3680.00 -28.61256568  11.43328410
3682.00 -28.64402095  11.45056533
3684.00 -28.67548577  11.46786195
3686.00 -28.70696015  11.48517395
3688.00 -28.73844407  11.50250136
3690.00 -28.76993751  11.51984415
3692.00 -28.80144048  11.53720235
3694.00 -28.83295296  11.55457594
3696.00 -28.86447494  11.57196493
3698.00 -28.89600641  11.58936933
3700.00 -28.92754736  11.60678913
3702.00 -28.95909778  11.62422434
3704.00 -28.99065767  11.64167496
3706.00 -29.02222701  11.65914099
3708.00 -29.05380580  11.67662243
3710.00 -29.08539402  11.69411929
3712.00 -29.11699166  11.71163156
3714.00 -29.14859872  11.72915926
3716.00 -29.18021519  11.74670237
3718.00 -29.21184105  11.76426091
3720.00 -29.24347630  11.78183488
3722.00 -29.27512092  11.79942427
3724.00 -29.30677492  11.81702909
3726.00 -29.33843827  11.83464934
3728.00 -29.37011097  11.85228503
3730.00 -29.40179301  11.86993615
3732.00 -29.43348437  11.88760270
3734.00 -29.46518506  11.90528470
3736.00 -29.49689506  11.92298214
3738.00 -29.52861436  11.94069502
3740.00 -29.56034295  11.95842334
3742.00 -29.59208082  11.97616711
3744.00 -29.62382796  11.99392634
3746.00 -29.65558437  12.01170101
3748.00 -29.68735003  12.02949113
3750.00 -29.71912493  12.04729671
3752.00 -29.75090906  12.06511774
3754.00 -29.78270242  12.08295423
3756.00 -29.81450500  12.10080619
3758.00 -29.84631678  12.11867360
3760.00 -29.87813776  12.13655648
3762.00 -29.90996792  12.15445482
3764.00 -29.94180726  12.17236863
3766.00 -29.97365576  12.19029791
3768.00 -30.00551343  12.20824266
3770.00 -30.03738024  12.22620289
3772.00 -30.06925619  12.24417859
3774.00 -30.10114127  12.26216976
3776.00 -30.13303547  12.28017641
3778.00 -30.16493878  12.29819855
3780.00 -30.19685119  12.31623616
3782.00 -30.22877269  12.33428926
3784.00 -30.26070328  12.35235785
3786.00 -30.29264293  12.37044192
3788.00 -30.32459165  12.38854148
3790.00 -30.35654942  12.40665653
3792.00 -30.38851623  12.42478707
3794.00 -30.42049208  12.44293311
3796.00 -30.45247695  12.46109464
3798.00 -30.48447084  12.47927167
3800.00 -30.51647373  12.49746420
3802.00 -30.54848562  12.51567223
3804.00 -30.58050650  12.53389577
3806.00 -30.61253635  12.55213481
3808.00 -30.64457517  12.57038935
3810.00 -30.67662294  12.58865940
3812.00 -30.70867967  12.60694496
3814.00 -30.74074533  12.62524604
3816.00 -30.77281993  12.64356262
3818.00 -30.80490344  12.66189472
3820.00 -30.83699586  12.68024234
3822.00 -30.86909719  12.69860547
3824.00 -30.90120740  12.71698413
3826.00 -30.93332650  12.73537830
3828.00 -30.96545447  12.75378800
3830.00 -30.99759130  12.77221322
3832.00 -31.02973699  12.79065396
3834.00 -31.06189152  12.80911024
3836.00 -31.09405489  12.82758204
3838.00 -31.12622708  12.84606938
3840.00 -31.15840808  12.86457224
3842.00 -31.19059789  12.88309064
3844.00 -31.22279650  12.90162458
3846.00 -31.25500390  12.92017405
3848.00 -31.28722007  12.93873906
3850.00 -31.31944501  12.95731961
3852.00 -31.35167871  12.97591570
3854.00 -31.38392116  12.99452734
3856.00 -31.41617235  13.01315452
3858.00 -31.44843226  13.03179724
3860.00 -31.48070090  13.05045552
3862.00 -31.51297825  13.06912934
3864.00 -31.54526430  13.08781871
3866.00 -31.57755905  13.10652364
3868.00 -31.60986248  13.12524412
3870.00 -31.64217458  13.14398015
3872.00 -31.67449534  13.16273174
3874.00 -31.70682476  13.18149889
3876.00 -31.73916282  13.20028160
3878.00 -31.77150952  13.21907987
3880.00 -31.80386485  13.23789370
3882.00 -31.83622879  13.25672309
3884.00 -31.86860134  13.27556805
3886.00 -31.90098249  13.29442858
3888.00 -31.93337222  13.31330467
3890.00 -31.96577054  13.33219634
3892.00 -31.99817742  13.35110357
3894.00 -32.03059286  13.37002638
3896.00 -32.06301686  13.38896476
3898.00 -32.09544939  13.40791872
3900.00 -32.12789046  13.42688825
3902.00 -32.16034005  13.44587336
3904.00 -32.19279815  13.46487405
3906.00 -32.22526475  13.48389032
3908.00 -32.25773985  13.50292218
3910.00 -32.29022343  13.52196961
3912.00 -32.32271549  13.54103263
3914.00 -32.35521601  13.56011124
3916.00 -32.38772499  13.57920543
3918.00 -32.42024242  13.59831521
3920.00 -32.45276828  13.61744058
3922.00 -32.48530257  13.63658155
3924.00 -32.51784528  13.65573810
3926.00 -32.55039640  13.67491025
3928.00 -32.58295592  13.69409799
3930.00 -32.61552382  13.71330133
3932.00 -32.64810011  13.73252027
3934.00 -32.68068477  13.75175481
3936.00 -32.71327779  13.77100495
3938.00 -32.74587917  13.79027068
3940.00 -32.77848888  13.80955203
3942.00 -32.81110693  13.82884897
3944.00 -32.84373331  13.84816152
3946.00 -32.87636800  13.86748968
3948.00 -32.90901099  13.88683344
3950.00 -32.94166228  13.90619281
3952.00 -32.97432186  13.92556779
3954.00 -33.00698972  13.94495839
3956.00 -33.03966584  13.96436459
3958.00 -33.07235022  13.98378641
3960.00 -33.10504285  14.00322384
3962.00 -33.13774372  14.02267689
3964.00 -33.17045282  14.04214556
3966.00 -33.20317014  14.06162985
3968.00 -33.23589567  14.08112975
3970.00 -33.26862940  14.10064527
3972.00 -33.30137133  14.12017642
3974.00 -33.33412144  14.13972319
3976.00 -33.36687972  14.15928558
3978.00 -33.39964617  14.17886360
3980.00 -33.43242077  14.19845724
3982.00 -33.46520352  14.21806652
3984.00 -33.49799441  14.23769141
3986.00 -33.53079342  14.25733194
3988.00 -33.56360055  14.27698810
3990.00 -33.59641578  14.29665989
3992.00 -33.62923912  14.31634732
3994.00 -33.66207055  14.33605037
3996.00 -33.69491005  14.35576907
3998.00 -33.72775763  14.37550339
4000.00 -33.76061327  14.39525336
4002.00 -33.79347696  14.41501896
4004.00 -33.82634869  14.43480020
4006.00 -33.85922846  14.45459709
4008.00 -33.89211624  14.47440961
4010.00 -33.92501205  14.49423777
4012.00 -33.95791586  14.51408158
4014.00 -33.99082766  14.53394103
4016.00 -34.02374746  14.55381613
4018.00 -34.05667522  14.57370687
4020.00 -34.08961096  14.59361326
4022.00 -34.12255466  14.61353530
4024.00 -34.15550630  14.63347298
4026.00 -34.18846588  14.65342632
4028.00 -34.22143340  14.67339531
4030.00 -34.25440883  14.69337995
4032.00 -34.28739218  14.71338024
4034.00 -34.32038343  14.73339619
4036.00 -34.35338257  14.75342779
4038.00 -34.38638960  14.77347504
4040.00 -34.41940450  14.79353795
4042.00 -34.45242727  14.81361652
4044.00 -34.48545789  14.83371075
4046.00 -34.51849635  14.85382064
4048.00 -34.55154266  14.87394618
4050.00 -34.58459679  14.89408739
4052.00 -34.61765874  14.91424426
4054.00 -34.65072850  14.93441680
4056.00 -34.68380606  14.95460499
4058.00 -34.71689141  14.97480885
4060.00 -34.74998455  14.99502838
4062.00 -34.78308545  15.01526357
4064.00 -34.81619412  15.03551443
4066.00 -34.84931054  15.05578096
4068.00 -34.88243470  15.07606315
4070.00 -34.91556660  15.09636102
4072.00 -34.94870622  15.11667455
4074.00 -34.98185356  15.13700376
4076.00 -35.01500861  15.15734864
4078.00 -35.04817135  15.17770919
4080.00 -35.08134178  15.19808541
4082.00 -35.11451989  15.21847731
4084.00 -35.14770567  15.23888488
4086.00 -35.18089912  15.25930813
4088.00 -35.21410021  15.27974706
4090.00 -35.24730894  15.30020166
4092.00 -35.28052531  15.32067194
4094.00 -35.31374930  15.34115790
4096.00 -35.34698090  15.36165954
4098.00 -35.38022011  15.38217686
4100.00 -35.41346691  15.40270987
4102.00 -35.44672130  15.42325855
4104.00 -35.47998326  15.44382291
4106.00 -35.51325280  15.46440296
4108.00 -35.54652989  15.48499869
4110.00 -35.57981453  15.50561011
4112.00 -35.61310671  15.52623721
4114.00 -35.64640642  15.54688000
4116.00 -35.67971365  15.56753848
4118.00 -35.71302840  15.58821264
4120.00 -35.74635064  15.60890249
4122.00 -35.77968038  15.62960803
4124.00 -35.81301761  15.65032926
4126.00 -35.84636231  15.67106617
4128.00 -35.87971447  15.69181878
4130.00 -35.91307409  15.71258708
4132.00 -35.94644116  15.73337107
4134.00 -35.97981567  15.75417076
4136.00 -36.01319760  15.77498613
4138.00 -36.04658696  15.79581720
4140.00 -36.07998372  15.81666397
4142.00 -36.11338789  15.83752643
4144.00 -36.14679945  15.85840458
4146.00 -36.18021839  15.87929843
4148.00 -36.21364470  15.90020798
4150.00 -36.24707838  15.92113322
4152.00 -36.28051941  15.94207416
4154.00 -36.31396779  15.96303080
4156.00 -36.34742350  15.98400314
4158.00 -36.38088654  16.00499118
4160.00 -36.41435690  16.02599492
4162.00 -36.44783457  16.04701436
4164.00 -36.48131954  16.06804950
4166.00 -36.51481180  16.08910034
4168.00 -36.54831134  16.11016688
4170.00 -36.58181815  16.13124913
4172.00 -36.61533223  16.15234708
4174.00 -36.64885355  16.17346073
4176.00 -36.68238213  16.19459009
4178.00 -36.71591793  16.21573515
4180.00 -36.74946097  16.23689591
4182.00 -36.78301122  16.25807238
4184.00 -36.81656867  16.27926456
4186.00 -36.85013333  16.30047244
4188.00 -36.88370518  16.32169603
4190.00 -36.91728420  16.34293533
4192.00 -36.95087040  16.36419033
4194.00 -36.98446376  16.38546105
4196.00 -37.01806427  16.40674747
4198.00 -37.05167192  16.42804960
4200.00 -37.08528671  16.44936744
4202.00 -37.11890862  16.47070098
4204.00 -37.15253765  16.49205024
4206.00 -37.18617379  16.51341521
4208.00 -37.21981702  16.53479589
4210.00 -37.25346734  16.55619229
4212.00 -37.28712474  16.57760439
4214.00 -37.32078921  16.59903221
4216.00 -37.35446074  16.62047573
4218.00 -37.38813932  16.64193498
4220.00 -37.42182495  16.66340993
4222.00 -37.45551761  16.68490060
4224.00 -37.48921729  16.70640698
4226.00 -37.52292399  16.72792907
4228.00 -37.55663769  16.74946688
4230.00 -37.59035839  16.77102041
4232.00 -37.62408608  16.79258965
4234.00 -37.65782075  16.81417461
4236.00 -37.69156238  16.83577528
4238.00 -37.72531098  16.85739166
4240.00 -37.75906653  16.87902377
4242.00 -37.79282902  16.90067159
4244.00 -37.82659844  16.92233513
4246.00 -37.86037479  16.94401438
4248.00 -37.89415805  16.96570935
4250.00 -37.92794822  16.98742004
4252.00 -37.96174528  17.00914645
4254.00 -37.99554923  17.03088857
4256.00 -38.02936006  17.05264642
4258.00 -38.06317776  17.07441998
4260.00 -38.09700231  17.09620926
4262.00 -38.13083372  17.11801426
4264.00 -38.16467197  17.13983498
4266.00 -38.19851705  17.16167142
4268.00 -38.23236896  17.18352358
4270.00 -38.26622768  17.20539146
4272.00 -38.30009321  17.22727506
4274.00 -38.33396553  17.24917438
4276.00 -38.36784464  17.27108942
4278.00 -38.40173053  17.29302019
4280.00 -38.43562318  17.31496667
4282.00 -38.46952260  17.33692887
4284.00 -38.50342877  17.35890680
4286.00 -38.53734168  17.38090044
4288.00 -38.57126132  17.40290981
4290.00 -38.60518769  17.42493490
4292.00 -38.63912077  17.44697571
4294.00 -38.67306055  17.46903224
4296.00 -38.70700704  17.49110450
4298.00 -38.74096021  17.51319247
4300.00 -38.77492005  17.53529617
4302.00 -38.80888657  17.55741560
4304.00 -38.84285975  17.57955074
4306.00 -38.87683958  17.60170161
4308.00 -38.91082605  17.62386820
4310.00 -38.94481915  17.64605051
4312.00 -38.97881888  17.66824854
4314.00 -39.01282522  17.69046230
4316.00 -39.04683817  17.71269178
4318.00 -39.08085772  17.73493699
4320.00 -39.11488385  17.75719791
4322.00 -39.14891656  17.77947456
4324.00 -39.18295585  17.80176694
4326.00 -39.21700169  17.82407503
4328.00 -39.25105408  17.84639885
4330.00 -39.28511302  17.86873840
4332.00 -39.31917849  17.89109366
4334.00 -39.35325049  17.91346465
4336.00 -39.38732900  17.93585137
4338.00 -39.42141402  17.95825380
4340.00 -39.45550553  17.98067196
4342.00 -39.48960354  18.00310584
4344.00 -39.52370802  18.02555545
4346.00 -39.55781897  18.04802078
4348.00 -39.59193639  18.07050183
4350.00 -39.62606026  18.09299861
4352.00 -39.66019057  18.11551111
4354.00 -39.69432732  18.13803933
4356.00 -39.72847049  18.16058327
4358.00 -39.76262008  18.18314294
4360.00 -39.79677608  18.20571833
4362.00 -39.83093847  18.22830944
4364.00 -39.86510726  18.25091628
4366.00 -39.89928242  18.27353884
4368.00 -39.93346396  18.29617712
4370.00 -39.96765186  18.31883112
4372.00 -40.00184611  18.34150085
4374.00 -40.03604671  18.36418630
4376.00 -40.07025365  18.38688747
4378.00 -40.10446691  18.40960436
4380.00 -40.13868649  18.43233697
4382.00 -40.17291238  18.45508531
4384.00 -40.20714457  18.47784937
4386.00 -40.24138304  18.50062915
4388.00 -40.27562781  18.52342465
4390.00 -40.30987884  18.54623587
4392.00 -40.34413614  18.56906281
4394.00 -40.37839969  18.59190547
4396.00 -40.41266949  18.61476386
4398.00 -40.44694553  18.63763796
4400.00 -40.48122780  18.66052779
4402.00 -40.51551628  18.68343333
4404.00 -40.54981098  18.70635460
4406.00 -40.58411188  18.72929158
4408.00 -40.61841897  18.75224429
4410.00 -40.65273224  18.77521271
4412.00 -40.68705169  18.79819686
4414.00 -40.72137730  18.82119672
4416.00 -40.75570908  18.84421230
4418.00 -40.79004700  18.86724360
4420.00 -40.82439105  18.89029061
4422.00 -40.85874124  18.91335335
4424.00 -40.89309755  18.93643180
4426.00 -40.92745998  18.95952597
4428.00 -40.96182850  18.98263586
4430.00 -40.99620313  19.00576147
4432.00 -41.03058383  19.02890279
4434.00 -41.06497062  19.05205982
4436.00 -41.09936347  19.07523258
4438.00 -41.13376238  19.09842105
4440.00 -41.16816734  19.12162523
4442.00 -41.20257834  19.14484513
4444.00 -41.23699538  19.16808075
4446.00 -41.27141844  19.19133208
4448.00 -41.30584751  19.21459912
4450.00 -41.34028259  19.23788188
4452.00 -41.37472367  19.26118035
4454.00 -41.40917073  19.28449454
4456.00 -41.44362378  19.30782443
4458.00 -41.47808279  19.33117005
4460.00 -41.51254776  19.35453137
4462.00 -41.54701869  19.37790840
4464.00 -41.58149556  19.40130115
4466.00 -41.61597837  19.42470961
4468.00 -41.65046710  19.44813377
4470.00 -41.68496175  19.47157365
4472.00 -41.71946231  19.49502924
4474.00 -41.75396877  19.51850054
4476.00 -41.78848112  19.54198755
4478.00 -41.82299935  19.56549026
4480.00 -41.85752345  19.58900869
4482.00 -41.89205342  19.61254282
4484.00 -41.92658925  19.63609266
4486.00 -41.96113092  19.65965821
4488.00 -41.99567842  19.68323946
4490.00 -42.03023176  19.70683642
4492.00 -42.06479092  19.73044909
4494.00 -42.09935589  19.75407746
4496.00 -42.13392666  19.77772153
4498.00 -42.16850322  19.80138131
4500.00 -42.20308557  19.82505680
4502.00 -42.23767370  19.84874799
4504.00 -42.27226759  19.87245488
4506.00 -42.30686724  19.89617747
4508.00 -42.34147264  19.91991577
4510.00 -42.37608378  19.94366977
4512.00 -42.41070066  19.96743947
4514.00 -42.44532325  19.99122487
4516.00 -42.47995157  20.01502597
4518.00 -42.51458558  20.03884276
4520.00 -42.54922530  20.06267526
4522.00 -42.58387070  20.08652346
4524.00 -42.61852178  20.11038735
4526.00 -42.65317854  20.13426695
4528.00 -42.68784095  20.15816224
4530.00 -42.72250902  20.18207322
4532.00 -42.75718273  20.20599990
4534.00 -42.79186208  20.22994228
4536.00 -42.82654706  20.25390035
4538.00 -42.86123765  20.27787412
4540.00 -42.89593385  20.30186358
4542.00 -42.93063565  20.32586873
4544.00 -42.96534305  20.34988957
4546.00 -43.00005603  20.37392611
4548.00 -43.03477458  20.39797834
4550.00 -43.06949870  20.42204625
4552.00 -43.10422837  20.44612986
4554.00 -43.13896360  20.47022916
4556.00 -43.17370436  20.49434415
4558.00 -43.20845066  20.51847482
4560.00 -43.24320247  20.54262118
4562.00 -43.27795980  20.56678323
4564.00 -43.31272263  20.59096097
4566.00 -43.34749096  20.61515439
4568.00 -43.38226478  20.63936349
4570.00 -43.41704408  20.66358828
4572.00 -43.45182884  20.68782876
4574.00 -43.48661907  20.71208491
4576.00 -43.52141475  20.73635675
4578.00 -43.55621587  20.76064427
4580.00 -43.59102243  20.78494748
4582.00 -43.62583441  20.80926636
4584.00 -43.66065181  20.83360092
4586.00 -43.69547462  20.85795116
4588.00 -43.73030283  20.88231708
4590.00 -43.76513643  20.90669867
4592.00 -43.79997542  20.93109595
4594.00 -43.83481978  20.95550889
4596.00 -43.86966950  20.97993752
4598.00 -43.90452459  21.00438182
4600.00 -43.93938502  21.02884179
4602.00 -43.97425079  21.05331743
4604.00 -44.00912189  21.07780875
4606.00 -44.04399831  21.10231574
4608.00 -44.07888004  21.12683840
4610.00 -44.11376709  21.15137673
4612.00 -44.14865942  21.17593073
4614.00 -44.18355705  21.20050040
4616.00 -44.21845995  21.22508573
4618.00 -44.25336813  21.24968673
4620.00 -44.28828156  21.27430340
4622.00 -44.32320025  21.29893574
4624.00 -44.35812419  21.32358374
4626.00 -44.39305336  21.34824740
4628.00 -44.42798776  21.37292672
4630.00 -44.46292737  21.39762171
4632.00 -44.49787220  21.42233236
4634.00 -44.53282223  21.44705867
4636.00 -44.56777745  21.47180064
4638.00 -44.60273785  21.49655826
4640.00 -44.63770343  21.52133155
4642.00 -44.67267418  21.54612049
4644.00 -44.70765008  21.57092509
4646.00 -44.74263114  21.59574535
4648.00 -44.77761733  21.62058125
4650.00 -44.81260866  21.64543282
4652.00 -44.84760512  21.67030003
4654.00 -44.88260668  21.69518290
4656.00 -44.91761336  21.72008142
4658.00 -44.95262513  21.74499559
4660.00 -44.98764200  21.76992540
4662.00 -45.02266394  21.79487087
4664.00 -45.05769096  21.81983198
4666.00 -45.09272304  21.84480874
4668.00 -45.12776017  21.86980115
4670.00 -45.16280236  21.89480920
4672.00 -45.19784958  21.91983289
4674.00 -45.23290183  21.94487223
4676.00 -45.26795910  21.96992721
4678.00 -45.30302139  21.99499783
4680.00 -45.33808868  22.02008409
4682.00 -45.37316096  22.04518599
4684.00 -45.40823824  22.07030352
4686.00 -45.44332049  22.09543670
4688.00 -45.47840771  22.12058551
4690.00 -45.51349989  22.14574995
4692.00 -45.54859702  22.17093003
4694.00 -45.58369910  22.19612574
4696.00 -45.61880612  22.22133709
4698.00 -45.65391806  22.24656407
4700.00 -45.68903492  22.27180667
4702.00 -45.72415669  22.29706491
4704.00 -45.75928337  22.32233877
4706.00 -45.79441493  22.34762826
4708.00 -45.82955139  22.37293338
4710.00 -45.86469271  22.39825412
4712.00 -45.89983891  22.42359049
4714.00 -45.93498997  22.44894248
4716.00 -45.97014587  22.47431009
4718.00 -46.00530662  22.49969332
4720.00 -46.04047220  22.52509218
4722.00 -46.07564261  22.55050665
4724.00 -46.11081784  22.57593674
4726.00 -46.14599787  22.60138245
4728.00 -46.18118270  22.62684377
4730.00 -46.21637233  22.65232071
4732.00 -46.25156674  22.67781326
4734.00 -46.28676592  22.70332142
4736.00 -46.32196987  22.72884519
4738.00 -46.35717857  22.75438458
4740.00 -46.39239203  22.77993957
4742.00 -46.42761022  22.80551017
4744.00 -46.46283315  22.83109638
4746.00 -46.49806081  22.85669820
4748.00 -46.53329317  22.88231562
4750.00 -46.56853025  22.90794864
4752.00 -46.60377202  22.93359727
4754.00 -46.63901849  22.95926149
4756.00 -46.67426963  22.98494132
4758.00 -46.70952545  23.01063675
4760.00 -46.74478593  23.03634777
4762.00 -46.78005107  23.06207439
4764.00 -46.81532086  23.08781661
4766.00 -46.85059529  23.11357442
4768.00 -46.88587435  23.13934783
4770.00 -46.92115803  23.16513682
4772.00 -46.95644633  23.19094141
4774.00 -46.99173923  23.21676159
4776.00 -47.02703673  23.24259735
4778.00 -47.06233882  23.26844871
4780.00 -47.09764549  23.29431565
4782.00 -47.13295673  23.32019817
4784.00 -47.16827254  23.34609628
4786.00 -47.20359290  23.37200997
4788.00 -47.23891781  23.39793924
4790.00 -47.27424726  23.42388409
4792.00 -47.30958124  23.44984452
4794.00 -47.34491974  23.47582053
4796.00 -47.38026275  23.50181212
4798.00 -47.41561027  23.52781928
4800.00 -47.45096229  23.55384201
4802.00 -47.48631880  23.57988032
4804.00 -47.52167979  23.60593419
4806.00 -47.55704524  23.63200364
4808.00 -47.59241517  23.65808866
4810.00 -47.62778955  23.68418924
4812.00 -47.66316837  23.71030539
4814.00 -47.69855164  23.73643711
4816.00 -47.73393933  23.76258439
4818.00 -47.76933145  23.78874723
4820.00 -47.80472798  23.81492563
4822.00 -47.84012891  23.84111959
4824.00 -47.87553425  23.86732912
4826.00 -47.91094397  23.89355419
4828.00 -47.94635807  23.91979483
4830.00 -47.98177654  23.94605102
4832.00 -48.01719938  23.97232276
4834.00 -48.05262658  23.99861005
4836.00 -48.08805812  24.02491290
4838.00 -48.12349400  24.05123129
4840.00 -48.15893421  24.07756523
4842.00 -48.19437874  24.10391472
4844.00 -48.22982759  24.13027975
4846.00 -48.26528074  24.15666033
4848.00 -48.30073819  24.18305645
4850.00 -48.33619993  24.20946811
4852.00 -48.37166595  24.23589530
4854.00 -48.40713625  24.26233804
4856.00 -48.44261080  24.28879632
4858.00 -48.47808962  24.31527013
4860.00 -48.51357268  24.34175947
4862.00 -48.54905998  24.36826435
4864.00 -48.58455152  24.39478476
4866.00 -48.62004727  24.42132070
4868.00 -48.65554724  24.44787216
4870.00 -48.69105142  24.47443916
4872.00 -48.72655980  24.50102168
4874.00 -48.76207237  24.52761972
4876.00 -48.79758911  24.55423329
4878.00 -48.83311004  24.58086237
4880.00 -48.86863513  24.60750698
4882.00 -48.90416437  24.63416711
4884.00 -48.93969777  24.66084275
4886.00 -48.97523530  24.68753391
4888.00 -49.01077697  24.71424058
4890.00 -49.04632276  24.74096277
4892.00 -49.08187267  24.76770046
4894.00 -49.11742669  24.79445367
4896.00 -49.15298480  24.82122239
4898.00 -49.18854701  24.84800661
4900.00 -49.22411330  24.87480633
4902.00 -49.25968367  24.90162156
4904.00 -49.29525811  24.92845229
4906.00 -49.33083660  24.95529853
4908.00 -49.36641914  24.98216026
4910.00 -49.40200573  25.00903749
4912.00 -49.43759635  25.03593021
4914.00 -49.47319100  25.06283844
4916.00 -49.50878966  25.08976215
4918.00 -49.54439234  25.11670135
4920.00 -49.57999901  25.14365605
4922.00 -49.61560968  25.17062623
4924.00 -49.65122434  25.19761190
4926.00 -49.68684297  25.22461306
4928.00 -49.72246557  25.25162970
4930.00 -49.75809213  25.27866182
4932.00 -49.79372265  25.30570942
4934.00 -49.82935711  25.33277251
4936.00 -49.86499551  25.35985107
4938.00 -49.90063783  25.38694510
4940.00 -49.93628408  25.41405461
4942.00 -49.97193423  25.44117959
4944.00 -50.00758830  25.46832005
4946.00 -50.04324625  25.49547597
4948.00 -50.07890810  25.52264736
4950.00 -50.11457382  25.54983422
4952.00 -50.15024342  25.57703655
4954.00 -50.18591688  25.60425433
4956.00 -50.22159420  25.63148758
4958.00 -50.25727536  25.65873629
4960.00 -50.29296036  25.68600045
4962.00 -50.32864920  25.71328008
4964.00 -50.36434185  25.74057515
4966.00 -50.40003832  25.76788569
4968.00 -50.43573860  25.79521167
4970.00 -50.47144268  25.82255310
4972.00 -50.50715055  25.84990998
4974.00 -50.54286220  25.87728231
4976.00 -50.57857762  25.90467008
4978.00 -50.61429681  25.93207330
4980.00 -50.65001976  25.95949196
4982.00 -50.68574647  25.98692606
4984.00 -50.72147691  26.01437560
4986.00 -50.75721109  26.04184057
4988.00 -50.79294899  26.06932098
4990.00 -50.82869061  26.09681682
4992.00 -50.86443594  26.12432810
4994.00 -50.90018498  26.15185480
4996.00 -50.93593771  26.17939693
4998.00 -50.97169412  26.20695449
5000.00 -51.00745421  26.23452747
