wavelength(nm)         real         imag
100.00   3.81991956   0.00076524
102.00   3.81668462   0.00081208
104.00   3.81338564   0.00086079
106.00   3.81002263   0.00091140
108.00   3.80659559   0.00096397
110.00   3.80310452   0.00101852
112.00   3.79954943   0.00107508
114.00   3.79593031   0.00113371
116.00   3.79224716   0.00119442
118.00   3.78849999   0.00125727
120.00   3.78468880   0.00132228
122.00   3.78081359   0.00138950
124.00   3.77687436   0.00145896
126.00   3.77287111   0.00153069
128.00   3.76880385   0.00160473
130.00   3.76467258   0.00168113
132.00   3.76047730   0.00175991
134.00   3.75621800   0.00184112
136.00   3.75189470   0.00192478
138.00   3.74750740   0.00201094
140.00   3.74305609   0.00209964
142.00   3.73854078   0.00219090
144.00   3.73396147   0.00228477
146.00   3.72931817   0.00238129
148.00   3.72461086   0.00248048
150.00   3.71983957   0.00258239
152.00   3.71500428   0.00268706
154.00   3.71010501   0.00279451
156.00   3.70514174   0.00290479
158.00   3.70011450   0.00301794
160.00   3.69502327   0.00313398
162.00   3.68986806   0.00325296
164.00   3.68464887   0.00337492
166.00   3.67936570   0.00349988
168.00   3.67401856   0.00362789
170.00   3.66860746   0.00375898
172.00   3.66313238   0.00389319
174.00   3.65759333   0.00403056
176.00   3.65199032   0.00417113
178.00   3.64632335   0.00431492
180.00   3.64059243   0.00446197
182.00   3.63479754   0.00461234
184.00   3.62893870   0.00476604
186.00   3.62301591   0.00492311
188.00   3.61702917   0.00508360
190.00   3.61097848   0.00524754
192.00   3.60486385   0.00541496
194.00   3.59868528   0.00558591
196.00   3.59244277   0.00576042
198.00   3.58613633   0.00593852
200.00   3.57976595   0.00612025
202.00   3.57333165   0.00630566
204.00   3.56683341   0.00649477
206.00   3.56027125   0.00668762
208.00   3.55364517   0.00688425
210.00   3.54695518   0.00708469
212.00   3.54020126   0.00728899
214.00   3.53338344   0.00749718
216.00   3.52650170   0.00770929
218.00   3.51955606   0.00792536
220.00   3.51254651   0.00814543
222.00   3.50547307   0.00836954
224.00   3.49833572   0.00859772
226.00   3.49113448   0.00883000
228.00   3.48386935   0.00906643
230.00   3.47654034   0.00930705
232.00   3.46914743   0.00955187
234.00   3.46169065   0.00980096
236.00   3.45416999   0.01005433
238.00   3.44658545   0.01031203
240.00   3.43893704   0.01057410
242.00   3.43122477   0.01084057
244.00   3.42344863   0.01111147
246.00   3.41560862   0.01138685
248.00   3.40770476   0.01166673
250.00   3.39973705   0.01195117
252.00   3.39170548   0.01224018
254.00   3.38361007   0.01253382
256.00   3.37545081   0.01283211
258.00   3.36722771   0.01313510
260.00   3.35894077   0.01344281
262.00   3.35059000   0.01375529
264.00   3.34217541   0.01407257
266.00   3.33369698   0.01439469
268.00   3.32515473   0.01472169
270.00   3.31654867   0.01505360
272.00   3.30787879   0.01539045
274.00   3.29914510   0.01573230
276.00   3.29034760   0.01607916
278.00   3.28148630   0.01643108
280.00   3.27256120   0.01678809
282.00   3.26357230   0.01715024
284.00   3.25451962   0.01751755
286.00   3.24540314   0.01789006
288.00   3.23622288   0.01826782
290.00   3.22697884   0.01865085
292.00   3.21767103   0.01903920
294.00   3.20829944   0.01943289
296.00   3.19886409   0.01983197
298.00   3.18936497   0.02023647
300.00   3.17980210   0.02064643
302.00   3.17017547   0.02106189
304.00   3.16048509   0.02148288
306.00   3.15073096   0.02190943
308.00   3.14091309   0.02234159
310.00   3.13103148   0.02277940
312.00   3.12108614   0.02322287
314.00   3.11107707   0.02367207
316.00   3.10100428   0.02412701
318.00   3.09086776   0.02458774
320.00   3.08066753   0.02505429
322.00   3.07040359   0.02552670
324.00   3.06007594   0.02600501
326.00   3.04968458   0.02648925
328.00   3.03922953   0.02697945
330.00   3.02871079   0.02747566
332.00   3.01812836   0.02797792
334.00   3.00748224   0.02848625
336.00   2.99677244   0.02900069
338.00   2.98599897   0.02952129
340.00   2.97516183   0.03004807
342.00   2.96426102   0.03058108
344.00   2.95329655   0.03112034
346.00   2.94226843   0.03166590
348.00   2.93117665   0.03221779
350.00   2.92002123   0.03277605
352.00   2.90880217   0.03334072
354.00   2.89751947   0.03391182
356.00   2.88617314   0.03448941
358.00   2.87476318   0.03507350
360.00   2.86328960   0.03566415
362.00   2.85175240   0.03626138
364.00   2.84015160   0.03686524
366.00   2.82848718   0.03747575
368.00   2.81675917   0.03809296
370.00   2.80496755   0.03871691
372.00   2.79311235   0.03934762
374.00   2.78119356   0.03998513
376.00   2.76921119   0.04062948
378.00   2.75716525   0.04128071
380.00   2.74505573   0.04193885
382.00   2.73288265   0.04260395
384.00   2.72064601   0.04327602
386.00   2.70834582   0.04395512
388.00   2.69598208   0.04464128
390.00   2.68355479   0.04533453
392.00   2.67106396   0.04603491
394.00   2.65850961   0.04674246
396.00   2.64589172   0.04745720
398.00   2.63321032   0.04817919
400.00   2.62046539   0.04890846
402.00   2.60765696   0.04964503
404.00   2.59478502   0.05038895
406.00   2.58184958   0.05114026
408.00   2.56885065   0.05189899
410.00   2.55578823   0.05266517
412.00   2.54266233   0.05343884
414.00   2.52947295   0.05422005
416.00   2.51622010   0.05500881
418.00   2.50290379   0.05580518
420.00   2.48952402   0.05660919
422.00   2.47608079   0.05742087
424.00   2.46257411   0.05824025
426.00   2.44900400   0.05906739
428.00   2.43537045   0.05990230
430.00   2.42167346   0.06074503
432.00   2.40791306   0.06159562
434.00   2.39408923   0.06245409
436.00   2.38020200   0.06332049
438.00   2.36625136   0.06419486
440.00   2.35223732   0.06507722
442.00   2.33815988   0.06596761
444.00   2.32401906   0.06686608
446.00   2.30981486   0.06777265
448.00   2.29554728   0.06868737
450.00   2.28121633   0.06961026
452.00   2.26682202   0.07054137
454.00   2.25236435   0.07148073
456.00   2.23784334   0.07242837
458.00   2.22325898   0.07338434
460.00   2.20861128   0.07434867
462.00   2.19390025   0.07532139
464.00   2.17912590   0.07630254
466.00   2.16428823   0.07729216
468.00   2.14938724   0.07829029
470.00   2.13442296   0.07929695
472.00   2.11939537   0.08031218
474.00   2.10430449   0.08133603
476.00   2.08915033   0.08236852
478.00   2.07393288   0.08340970
480.00   2.05865217   0.08445960
482.00   2.04330819   0.08551825
484.00   2.02790095   0.08658569
486.00   2.01243045   0.08766196
488.00   1.99689672   0.08874709
490.00   1.98129974   0.08984112
492.00   1.96563953   0.09094408
494.00   1.94991610   0.09205602
496.00   1.93412944   0.09317696
498.00   1.91827958   0.09430694
500.00   1.90236651   0.09544600
502.00   1.88639025   0.09659418
504.00   1.87035079   0.09775151
506.00   1.85424815   0.09891802
508.00   1.83808233   0.10009375
510.00   1.82185335   0.10127874
512.00   1.80556120   0.10247303
514.00   1.78920589   0.10367664
516.00   1.77278744   0.10488962
518.00   1.75630585   0.10611200
520.00   1.73976112   0.10734382
522.00   1.72315327   0.10858511
524.00   1.70648229   0.10983591
526.00   1.68974820   0.11109626
528.00   1.67295101   0.11236618
530.00   1.65609072   0.11364572
532.00   1.63916734   0.11493492
534.00   1.62218088   0.11623380
536.00   1.60513134   0.11754240
538.00   1.58801873   0.11886076
540.00   1.57084307   0.12018892
542.00   1.55360435   0.12152691
544.00   1.53630258   0.12287477
546.00   1.51893777   0.12423253
548.00   1.50150994   0.12560022
550.00   1.48401908   0.12697790
552.00   1.46646520   0.12836558
554.00   1.44884832   0.12976330
556.00   1.43116844   0.13117111
558.00   1.41342556   0.13258903
560.00   1.39561970   0.13401711
562.00   1.37775086   0.13545537
564.00   1.35981905   0.13690386
566.00   1.34182428   0.13836261
568.00   1.32376656   0.13983165
570.00   1.30564589   0.14131102
572.00   1.28746229   0.14280076
574.00   1.26921575   0.14430091
576.00   1.25090629   0.14581149
578.00   1.23253392   0.14733254
580.00   1.21409863   0.14886410
582.00   1.19560046   0.15040621
584.00   1.17703939   0.15195890
586.00   1.15841544   0.15352220
588.00   1.13972861   0.15509616
590.00   1.12097892   0.15668080
592.00   1.10216637   0.15827617
594.00   1.08329097   0.15988229
596.00   1.06435273   0.16149921
598.00   1.04535166   0.16312696
600.00   1.02628776   0.16476557
602.00   1.00716104   0.16641508
604.00   0.98797152   0.16807553
606.00   0.96871920   0.16974695
608.00   0.94940408   0.17142938
610.00   0.93002618   0.17312285
612.00   0.91058551   0.17482740
614.00   0.89108206   0.17654306
616.00   0.87151586   0.17826987
618.00   0.85188692   0.18000787
620.00   0.83219523   0.18175708
622.00   0.81244080   0.18351755
624.00   0.79262366   0.18528932
626.00   0.77274379   0.18707241
628.00   0.75280123   0.18886686
630.00   0.73279596   0.19067270
632.00   0.71272800   0.19248999
634.00   0.69259737   0.19431873
636.00   0.67240406   0.19615899
638.00   0.65214808   0.19801078
640.00   0.63182946   0.19987415
642.00   0.61144818   0.20174912
644.00   0.59100427   0.20363574
646.00   0.57049774   0.20553404
648.00   0.54992858   0.20744406
650.00   0.52929681   0.20936583
652.00   0.50860244   0.21129938
654.00   0.48784548   0.21324476
656.00   0.46702594   0.21520200
658.00   0.44614382   0.21717112
660.00   0.42519914   0.21915218
662.00   0.40419190   0.22114520
664.00   0.38312211   0.22315021
666.00   0.36198979   0.22516726
668.00   0.34079493   0.22719638
670.00   0.31953756   0.22923760
672.00   0.29821768   0.23129097
674.00   0.27683529   0.23335650
676.00   0.25539041   0.23543425
678.00   0.23388305   0.23752424
680.00   0.21231322   0.23962652
682.00   0.19068092   0.24174110
684.00   0.16898617   0.24386804
686.00   0.14722898   0.24600737
688.00   0.12540934   0.24815912
690.00   0.10352729   0.25032332
692.00   0.08158281   0.25250001
694.00   0.05957593   0.25468923
696.00   0.03750664   0.25689102
698.00   0.01537498   0.25910540
700.00  -0.00681907   0.26133241
702.00  -0.02907549   0.26357209
704.00  -0.05139427   0.26582447
706.00  -0.07377540   0.26808959
708.00  -0.09621886   0.27036748
710.00  -0.11872466   0.27265818
712.00  -0.14129278   0.27496172
714.00  -0.16392321   0.27727814
716.00  -0.18661594   0.27960748
718.00  -0.20937096   0.28194976
720.00  -0.23218827   0.28430502
722.00  -0.25506784   0.28667330
724.00  -0.27800968   0.28905464
726.00  -0.30101377   0.29144906
728.00  -0.32408010   0.29385661
730.00  -0.34720867   0.29627731
732.00  -0.37039945   0.29871121
734.00  -0.39365245   0.30115833
736.00  -0.41696765   0.30361872
738.00  -0.44034504   0.30609240
740.00  -0.46378462   0.30857942
742.00  -0.48728636   0.31107981
744.00  -0.51085027   0.31359360
746.00  -0.53447633   0.31612082
748.00  -0.55816453   0.31866152
750.00  -0.58191486   0.32121573
752.00  -0.60572731   0.32378347
754.00  -0.62960187   0.32636480
756.00  -0.65353854   0.32895974
758.00  -0.67753729   0.33156832
760.00  -0.70159812   0.33419059
762.00  -0.72572102   0.33682657
764.00  -0.74990598   0.33947630
766.00  -0.77415299   0.34213982
768.00  -0.79846203   0.34481716
770.00  -0.82283311   0.34750836
772.00  -0.84726620   0.35021345
774.00  -0.87176129   0.35293246
776.00  -0.89631838   0.35566543
778.00  -0.92093746   0.35841240
780.00  -0.94561851   0.36117340
782.00  -0.97036153   0.36394846
784.00  -0.99516649   0.36673762
786.00  -1.02003341   0.36954092
788.00  -1.04496225   0.37235838
790.00  -1.06995301   0.37519005
792.00  -1.09500569   0.37803595
794.00  -1.12012026   0.38089613
796.00  -1.14529672   0.38377061
798.00  -1.17053506   0.38665944
800.00  -1.19583527   0.38956264
802.00  -1.22119733   0.39248025
804.00  -1.24662124   0.39541231
806.00  -1.27210698   0.39835885
808.00  -1.29765454   0.40131991
810.00  -1.32326392   0.40429551
812.00  -1.34893510   0.40728570
814.00  -1.37466807   0.41029051
816.00  -1.40046282   0.41330997
818.00  -1.42631933   0.41634412
820.00  -1.45223761   0.41939299
822.00  -1.47821762   0.42245662
824.00  -1.50425938   0.42553504
826.00  -1.53036285   0.42862829
828.00  -1.55652804   0.43173640
830.00  -1.58275493   0.43485940
832.00  -1.60904351   0.43799733
834.00  -1.63539376   0.44115022
836.00  -1.66180569   0.44431812
838.00  -1.68827927   0.44750104
840.00  -1.71481449   0.45069904
842.00  -1.74141134   0.45391213
844.00  -1.76806982   0.45714037
846.00  -1.79478991   0.46038377
848.00  -1.82157159   0.46364238
850.00  -1.84841486   0.46691622
852.00  -1.87531971   0.47020534
854.00  -1.90228612   0.47350977
856.00  -1.92931409   0.47682954
858.00  -1.95640359   0.48016469
860.00  -1.98355462   0.48351525
862.00  -2.01076717   0.48688125
864.00  -2.03804123   0.49026274
866.00  -2.06537678   0.49365973
868.00  -2.09277381   0.49707228
870.00  -2.12023231   0.50050041
872.00  -2.14775227   0.50394415
874.00  -2.17533368   0.50740355
876.00  -2.20297652   0.51087863
878.00  -2.23068078   0.51436943
880.00  -2.25844646   0.51787599
882.00  -2.28627353   0.52139833
884.00  -2.31416200   0.52493650
886.00  -2.34211183   0.52849052
888.00  -2.37012303   0.53206043
890.00  -2.39819559   0.53564627
892.00  -2.42632948   0.53924806
894.00  -2.45452470   0.54286585
896.00  -2.48278123   0.54649967
898.00  -2.51109907   0.55014955
900.00  -2.53947819   0.55381552
902.00  -2.56791860   0.55749762
904.00  -2.59642027   0.56119588
906.00  -2.62498320   0.56491035
908.00  -2.65360737   0.56864104
910.00  -2.68229277   0.57238800
912.00  -2.71103938   0.57615126
914.00  -2.73984721   0.57993085
916.00  -2.76871622   0.58372682
918.00  -2.79764641   0.58753918
920.00  -2.82663778   0.59136798
922.00  -2.85569030   0.59521324
924.00  -2.88480396   0.59907502
926.00  -2.91397875   0.60295333
928.00  -2.94321466   0.60684821
930.00  -2.97251168   0.61075969
932.00  -3.00186979   0.61468782
934.00  -3.03128898   0.61863262
936.00  -3.06076923   0.62259413
938.00  -3.09031055   0.62657237
940.00  -3.11991290   0.63056740
942.00  -3.14957629   0.63457923
944.00  -3.17930069   0.63860790
946.00  -3.20908610   0.64265345
948.00  -3.23893250   0.64671591
950.00  -3.26883988   0.65079532
952.00  -3.29880823   0.65489170
954.00  -3.32883753   0.65900509
956.00  -3.35892777   0.66313554
958.00  -3.38907893   0.66728305
960.00  -3.41929102   0.67144769
962.00  -3.44956400   0.67562947
964.00  -3.47989788   0.67982843
966.00  -3.51029263   0.68404460
968.00  -3.54074824   0.68827802
970.00  -3.57126470   0.69252872
972.00  -3.60184200   0.69679674
974.00  -3.63248013   0.70108211
976.00  -3.66317906   0.70538486
978.00  -3.69393880   0.70970503
980.00  -3.72475932   0.71404264
982.00  -3.75564061   0.71839774
984.00  -3.78658265   0.72277036
986.00  -3.81758545   0.72716053
988.00  -3.84864897   0.73156828
990.00  -3.87977322   0.73599365
992.00  -3.91095817   0.74043667
994.00  -3.94220381   0.74489737
996.00  -3.97351013   0.74937580
998.00  -4.00487712   0.75387197
1000.00  -4.03630475   0.75838594
1002.00  -4.06779303   0.76291772
1004.00  -4.09934193   0.76746735
1006.00  -4.13095145   0.77203487
1008.00  -4.16262156   0.77662031
1010.00  -4.19435225   0.78122370
1012.00  -4.22614352   0.78584507
1014.00  -4.25799535   0.79048447
1016.00  -4.28990772   0.79514192
1018.00  -4.32188062   0.79981746
1020.00  -4.35391403   0.80451111
1022.00  -4.38600795   0.80922292
1024.00  -4.41816236   0.81395292
1026.00  -4.45037725   0.81870113
1028.00  -4.48265260   0.82346760
1030.00  -4.51498839   0.82825236
1032.00  -4.54738463   0.83305543
1034.00  -4.57984128   0.83787686
1036.00  -4.61235834   0.84271667
1038.00  -4.64493579   0.84757491
1040.00  -4.67757362   0.85245159
1042.00  -4.71027182   0.85734677
1044.00  -4.74303037   0.86226046
1046.00  -4.77584925   0.86719270
1048.00  -4.80872846   0.87214354
1050.00  -4.84166798   0.87711298
1052.00  -4.87466780   0.88210109
1054.00  -4.90772789   0.88710787
1056.00  -4.94084826   0.89213338
1058.00  -4.97402887   0.89717764
1060.00  -5.00726973   0.90224068
1062.00  -5.04057081   0.90732254
1064.00  -5.07393211   0.91242325
1066.00  -5.10735360   0.91754284
1068.00  -5.14083527   0.92268135
1070.00  -5.17437711   0.92783881
1072.00  -5.20797911   0.93301526
1074.00  -5.24164124   0.93821072
1076.00  -5.27536350   0.94342522
1078.00  -5.30914588   0.94865882
1080.00  -5.34298835   0.95391152
1082.00  -5.37689090   0.95918338
1084.00  -5.41085352   0.96447441
1086.00  -5.44487619   0.96978466
1088.00  -5.47895891   0.97511416
1090.00  -5.51310164   0.98046293
1092.00  -5.54730439   0.98583102
1094.00  -5.58156714   0.99121846
1096.00  -5.61588986   0.99662527
1098.00  -5.65027256   1.00205149
1100.00  -5.68471520   1.00749716
1102.00  -5.71921778   1.01296231
1104.00  -5.75378029   1.01844696
1106.00  -5.78840270   1.02395116
1108.00  -5.82308501   1.02947493
1110.00  -5.85782720   1.03501832
1112.00  -5.89262925   1.04058134
1114.00  -5.92749115   1.04616404
1116.00  -5.96241289   1.05176644
1118.00  -5.99739444   1.05738858
1120.00  -6.03243580   1.06303049
1122.00  -6.06753695   1.06869221
1124.00  -6.10269788   1.07437377
1126.00  -6.13791856   1.08007520
1128.00  -6.17319899   1.08579652
1130.00  -6.20853916   1.09153779
1132.00  -6.24393904   1.09729902
1134.00  -6.27939861   1.10308025
1136.00  -6.31491788   1.10888152
1138.00  -6.35049681   1.11470285
1140.00  -6.38613541   1.12054428
1142.00  -6.42183364   1.12640584
1144.00  -6.45759149   1.13228756
1146.00  -6.49340896   1.13818948
1148.00  -6.52928602   1.14411163
1150.00  -6.56522267   1.15005404
1152.00  -6.60121887   1.15601674
1154.00  -6.63727463   1.16199977
1156.00  -6.67338992   1.16800316
1158.00  -6.70956473   1.17402693
1160.00  -6.74579905   1.18007113
1162.00  -6.78209285   1.18613579
1164.00  -6.81844613   1.19222093
1166.00  -6.85485886   1.19832660
1168.00  -6.89133104   1.20445282
1170.00  -6.92786264   1.21059962
1172.00  -6.96445365   1.21676704
1174.00  -7.00110406   1.22295511
1176.00  -7.03781386   1.22916386
1178.00  -7.07458301   1.23539333
1180.00  -7.11141152   1.24164354
1182.00  -7.14829936   1.24791454
1184.00  -7.18524652   1.25420634
1186.00  -7.22225298   1.26051899
1188.00  -7.25931873   1.26685251
1190.00  -7.29644375   1.27320694
1192.00  -7.33362803   1.27958231
1194.00  -7.37087155   1.28597866
1196.00  -7.40817429   1.29239601
1198.00  -7.44553624   1.29883439
1200.00  -7.48295739   1.30529384
1202.00  -7.52043771   1.31177440
1204.00  -7.55797719   1.31827609
1206.00  -7.59557582   1.32479894
1208.00  -7.63323358   1.33134299
1210.00  -7.67095046   1.33790827
1212.00  -7.70872643   1.34449481
1214.00  -7.74656148   1.35110265
1216.00  -7.78445560   1.35773180
1218.00  -7.82240877   1.36438232
1220.00  -7.86042098   1.37105423
1222.00  -7.89849221   1.37774756
1224.00  -7.93662243   1.38446234
1226.00  -7.97481165   1.39119861
1228.00  -8.01305983   1.39795639
1230.00  -8.05136697   1.40473572
1232.00  -8.08973304   1.41153664
1234.00  -8.12815804   1.41835917
1236.00  -8.16664195   1.42520334
1238.00  -8.20518474   1.43206919
1240.00  -8.24378641   1.43895674
1242.00  -8.28244693   1.44586604
1244.00  -8.32116630   1.45279711
1246.00  -8.35994449   1.45974999
1248.00  -8.39878149   1.46672470
1250.00  -8.43767728   1.47372127
1252.00  -8.47663185   1.48073975
1254.00  -8.51564517   1.48778016
1256.00  -8.55471724   1.49484253
1258.00  -8.59384804   1.50192689
1260.00  -8.63303754   1.50903329
1262.00  -8.67228574   1.51616174
1264.00  -8.71159262   1.52331227
1266.00  -8.75095816   1.53048493
1268.00  -8.79038234   1.53767975
1270.00  -8.82986515   1.54489674
1272.00  -8.86940658   1.55213596
1274.00  -8.90900659   1.55939742
1276.00  -8.94866519   1.56668116
1278.00  -8.98838234   1.57398721
1280.00  -9.02815804   1.58131560
1282.00  -9.06799227   1.58866637
1284.00  -9.10788501   1.59603954
1286.00  -9.14783625   1.60343515
1288.00  -9.18784596   1.61085323
1290.00  -9.22791413   1.61829380
1292.00  -9.26804075   1.62575691
1294.00  -9.30822580   1.63324258
1296.00  -9.34846925   1.64075085
1298.00  -9.38877110   1.64828174
1300.00  -9.42913133   1.65583529
1302.00  -9.46954992   1.66341152
1304.00  -9.51002685   1.67101048
1306.00  -9.55056211   1.67863218
1308.00  -9.59115567   1.68627667
1310.00  -9.63180753   1.69394397
1312.00  -9.67251767   1.70163412
1314.00  -9.71328606   1.70934714
1316.00  -9.75411269   1.71708307
1318.00  -9.79499755   1.72484194
1320.00  -9.83594062   1.73262378
1322.00  -9.87694187   1.74042861
1324.00  -9.91800130   1.74825649
1326.00  -9.95911888   1.75610742
1328.00 -10.00029461   1.76398145
1330.00 -10.04152845   1.77187860
1332.00 -10.08282040   1.77979892
1334.00 -10.12417043   1.78774242
1336.00 -10.16557854   1.79570913
1338.00 -10.20704469   1.80369910
1340.00 -10.24856888   1.81171235
1342.00 -10.29015109   1.81974892
1344.00 -10.33179130   1.82780882
1346.00 -10.37348950   1.83589210
1348.00 -10.41524565   1.84399879
1350.00 -10.45705976   1.85212891
1352.00 -10.49893180   1.86028250
1354.00 -10.54086175   1.86845958
1356.00 -10.58284959   1.87666020
1358.00 -10.62489532   1.88488438
1360.00 -10.66699890   1.89313214
1362.00 -10.70916033   1.90140353
1364.00 -10.75137958   1.90969858
1366.00 -10.79365664   1.91801730
1368.00 -10.83599150   1.92635974
1370.00 -10.87838412   1.93472593
1372.00 -10.92083450   1.94311589
1374.00 -10.96334262   1.95152966
1376.00 -11.00590846   1.95996726
1378.00 -11.04853200   1.96842874
1380.00 -11.09121322   1.97691411
1382.00 -11.13395211   1.98542341
1384.00 -11.17674865   1.99395668
1386.00 -11.21960282   2.00251393
1388.00 -11.26251460   2.01109521
1390.00 -11.30548398   2.01970054
1392.00 -11.34851093   2.02832996
1394.00 -11.39159545   2.03698348
1396.00 -11.43473751   2.04566115
1398.00 -11.47793709   2.05436300
1400.00 -11.52119417   2.06308905
1402.00 -11.56450875   2.07183934
1404.00 -11.60788079   2.08061390
1406.00 -11.65131029   2.08941275
1408.00 -11.69479722   2.09823593
1410.00 -11.73834156   2.10708347
1412.00 -11.78194330   2.11595540
1414.00 -11.82560242   2.12485175
1416.00 -11.86931891   2.13377255
1418.00 -11.91309273   2.14271783
1420.00 -11.95692389   2.15168761
1422.00 -12.00081234   2.16068194
1424.00 -12.04475809   2.16970084
1426.00 -12.08876111   2.17874435
1428.00 -12.13282138   2.18781248
1430.00 -12.17693888   2.19690528
1432.00 -12.22111360   2.20602277
1434.00 -12.26534552   2.21516498
1436.00 -12.30963461   2.22433195
1438.00 -12.35398087   2.23352369
1440.00 -12.39838427   2.24274026
1442.00 -12.44284479   2.25198167
1444.00 -12.48736242   2.26124795
1446.00 -12.53193713   2.27053913
1448.00 -12.57656892   2.27985525
1450.00 -12.62125775   2.28919634
1452.00 -12.66600362   2.29856242
1454.00 -12.71080649   2.30795353
1456.00 -12.75566637   2.31736969
1458.00 -12.80058322   2.32681093
1460.00 -12.84555702   2.33627729
1462.00 -12.89058777   2.34576880
1464.00 -12.93567543   2.35528548
1466.00 -12.98082000   2.36482737
1468.00 -13.02602145   2.37439449
1470.00 -13.07127976   2.38398688
1472.00 -13.11659492   2.39360457
1474.00 -13.16196691   2.40324757
1476.00 -13.20739570   2.41291594
1478.00 -13.25288129   2.42260969
1480.00 -13.29842364   2.43232885
1482.00 -13.34402275   2.44207346
1484.00 -13.38967859   2.45184355
1486.00 -13.43539114   2.46163914
1488.00 -13.48116039   2.47146026
1490.00 -13.52698631   2.48130695
1492.00 -13.57286889   2.49117923
1494.00 -13.61880811   2.50107714
1496.00 -13.66480395   2.51100070
1498.00 -13.71085639   2.52094995
1500.00 -13.75696541   2.53092490
1502.00 -13.80313100   2.54092560
1504.00 -13.84935313   2.55095208
1506.00 -13.89563178   2.56100435
1508.00 -13.94196693   2.57108246
1510.00 -13.98835858   2.58118643
1512.00 -14.03480669   2.59131629
1514.00 -14.08131125   2.60147207
1516.00 -14.12787224   2.61165380
1518.00 -14.17448963   2.62186151
1520.00 -14.22116342   2.63209523
1522.00 -14.26789358   2.64235499
1524.00 -14.31468009   2.65264082
1526.00 -14.36152294   2.66295275
1528.00 -14.40842210   2.67329080
1530.00 -14.45537755   2.68365502
1532.00 -14.50238928   2.69404541
1534.00 -14.54945726   2.70446203
1536.00 -14.59658148   2.71490489
1538.00 -14.64376192   2.72537402
1540.00 -14.69099855   2.73586946
1542.00 -14.73829136   2.74639123
1544.00 -14.78564033   2.75693937
1546.00 -14.83304544   2.76751389
1548.00 -14.88050667   2.77811484
1550.00 -14.92802400   2.78874224
1552.00 -14.97559741   2.79939612
1554.00 -15.02322689   2.81007651
1556.00 -15.07091240   2.82078344
1558.00 -15.11865394   2.83151693
1560.00 -15.16645148   2.84227703
1562.00 -15.21430500   2.85306374
1564.00 -15.26221448   2.86387712
1566.00 -15.31017991   2.87471718
1568.00 -15.35820127   2.88558395
1570.00 -15.40627852   2.89647746
1572.00 -15.45441167   2.90739775
1574.00 -15.50260067   2.91834484
1576.00 -15.55084553   2.92931875
1578.00 -15.59914620   2.94031953
1580.00 -15.64750269   2.95134719
1582.00 -15.69591496   2.96240177
1584.00 -15.74438299   2.97348330
1586.00 -15.79290677   2.98459180
1588.00 -15.84148628   2.99572731
1590.00 -15.89012150   3.00688985
1592.00 -15.93881240   3.01807945
1594.00 -15.98755897   3.02929614
1596.00 -16.03636118   3.04053995
1598.00 -16.08521902   3.05181091
1600.00 -16.13413247   3.06310904
1602.00 -16.18310150   3.07443439
1604.00 -16.23212611   3.08578696
1606.00 -16.28120625   3.09716680
1608.00 -16.33034193   3.10857394
1610.00 -16.37953311   3.12000839
1612.00 -16.42877978   3.13147019
1614.00 -16.47808191   3.14295938
1616.00 -16.52743949   3.15447597
1618.00 -16.57685250   3.16601999
1620.00 -16.62632091   3.17759148
1622.00 -16.67584471   3.18919047
1624.00 -16.72542388   3.20081697
1626.00 -16.77505839   3.21247103
1628.00 -16.82474822   3.22415266
1630.00 -16.87449336   3.23586191
1632.00 -16.92429379   3.24759879
1634.00 -16.97414947   3.25936333
1636.00 -17.02406041   3.27115557
1638.00 -17.07402656   3.28297552
1640.00 -17.12404792   3.29482323
1642.00 -17.17412446   3.30669872
1644.00 -17.22425617   3.31860201
1646.00 -17.27444302   3.33053314
1648.00 -17.32468499   3.34249214
1650.00 -17.37498205   3.35447902
1652.00 -17.42533421   3.36649383
1654.00 -17.47574142   3.37853659
1656.00 -17.52620367   3.39060732
1658.00 -17.57672094   3.40270606
1660.00 -17.62729320   3.41483283
1662.00 -17.67792045   3.42698766
1664.00 -17.72860266   3.43917059
1666.00 -17.77933980   3.45138163
1668.00 -17.83013185   3.46362082
1670.00 -17.88097881   3.47588819
1672.00 -17.93188063   3.48818375
1674.00 -17.98283732   3.50050755
1676.00 -18.03384883   3.51285961
1678.00 -18.08491516   3.52523996
1680.00 -18.13603628   3.53764862
1682.00 -18.18721217   3.55008563
1684.00 -18.23844282   3.56255101
1686.00 -18.28972819   3.57504478
1688.00 -18.34106827   3.58756699
1690.00 -18.39246304   3.60011765
1692.00 -18.44391248   3.61269680
1694.00 -18.49541657   3.62530446
1696.00 -18.54697528   3.63794065
1698.00 -18.59858859   3.65060542
1700.00 -18.65025649   3.66329878
1702.00 -18.70197895   3.67602076
1704.00 -18.75375596   3.68877140
1706.00 -18.80558748   3.70155071
1708.00 -18.85747351   3.71435874
1710.00 -18.90941401   3.72719549
1712.00 -18.96140897   3.74006101
1714.00 -19.01345837   3.75295532
1716.00 -19.06556219   3.76587845
1718.00 -19.11772040   3.77883043
1720.00 -19.16993298   3.79181127
1722.00 -19.22219991   3.80482102
1724.00 -19.27452118   3.81785970
1726.00 -19.32689676   3.83092734
1728.00 -19.37932663   3.84402396
1730.00 -19.43181076   3.85714959
1732.00 -19.48434915   3.87030426
1734.00 -19.53694175   3.88348800
1736.00 -19.58958857   3.89670083
1738.00 -19.64228956   3.90994279
1740.00 -19.69504472   3.92321390
1742.00 -19.74785401   3.93651418
1744.00 -19.80071743   3.94984367
1746.00 -19.85363495   3.96320239
1748.00 -19.90660654   3.97659037
1750.00 -19.95963218   3.99000764
1752.00 -20.01271186   4.00345422
1754.00 -20.06584556   4.01693014
1756.00 -20.11903324   4.03043544
1758.00 -20.17227489   4.04397013
1760.00 -20.22557049   4.05753424
1762.00 -20.27892002   4.07112781
1764.00 -20.33232345   4.08475085
1766.00 -20.38578077   4.09840340
1768.00 -20.43929195   4.11208549
1770.00 -20.49285697   4.12579713
1772.00 -20.54647581   4.13953836
1774.00 -20.60014844   4.15330921
1776.00 -20.65387485   4.16710970
1778.00 -20.70765502   4.18093986
1780.00 -20.76148892   4.19479971
1782.00 -20.81537653   4.20868929
1784.00 -20.86931782   4.22260862
1786.00 -20.92331279   4.23655772
1788.00 -20.97736140   4.25053663
1790.00 -21.03146364   4.26454538
1792.00 -21.08561948   4.27858398
1794.00 -21.13982890   4.29265247
1796.00 -21.19409188   4.30675087
1798.00 -21.24840839   4.32087921
1800.00 -21.30277842   4.33503751
1802.00 -21.35720195   4.34922582
1804.00 -21.41167894   4.36344414
1806.00 -21.46620939   4.37769251
1808.00 -21.52079326   4.39197095
1810.00 -21.57543054   4.40627949
1812.00 -21.63012121   4.42061816
1814.00 -21.68486523   4.43498699
1816.00 -21.73966260   4.44938600
1818.00 -21.79451329   4.46381522
1820.00 -21.84941727   4.47827467
1822.00 -21.90437453   4.49276438
1824.00 -21.95938503   4.50728438
1826.00 -22.01444877   4.52183470
1828.00 -22.06956572   4.53641536
1830.00 -22.12473585   4.55102639
1832.00 -22.17995915   4.56566781
1834.00 -22.23523559   4.58033966
1836.00 -22.29056515   4.59504195
1838.00 -22.34594781   4.60977472
1840.00 -22.40138354   4.62453799
1842.00 -22.45687233   4.63933179
1844.00 -22.51241415   4.65415614
1846.00 -22.56800898   4.66901107
1848.00 -22.62365679   4.68389661
1850.00 -22.67935757   4.69881279
1852.00 -22.73511130   4.71375962
1854.00 -22.79091794   4.72873715
1856.00 -22.84677748   4.74374538
1858.00 -22.90268990   4.75878436
1860.00 -22.95865517   4.77385410
1862.00 -23.01467327   4.78895463
1864.00 -23.07074418   4.80408598
1866.00 -23.12686787   4.81924818
1868.00 -23.18304433   4.83444124
1870.00 -23.23927354   4.84966521
1872.00 -23.29555546   4.86492010
1874.00 -23.35189008   4.88020594
1876.00 -23.40827737   4.89552275
1878.00 -23.46471731   4.91087057
1880.00 -23.52120989   4.92624941
1882.00 -23.57775507   4.94165931
1884.00 -23.63435283   4.95710029
1886.00 -23.69100316   4.97257238
1888.00 -23.74770603   4.98807560
1890.00 -23.80446141   5.00360997
1892.00 -23.86126929   5.01917554
1894.00 -23.91812964   5.03477231
1896.00 -23.97504243   5.05040032
1898.00 -24.03200766   5.06605960
1900.00 -24.08902529   5.08175016
1902.00 -24.14609530   5.09747203
1904.00 -24.20321766   5.11322525
1906.00 -24.26039237   5.12900983
1908.00 -24.31761939   5.14482581
1910.00 -24.37489869   5.16067320
1912.00 -24.43223027   5.17655204
1914.00 -24.48961409   5.19246235
1916.00 -24.54705013   5.20840415
1918.00 -24.60453837   5.22437748
1920.00 -24.66207879   5.24038235
1922.00 -24.71967136   5.25641880
1924.00 -24.77731606   5.27248684
1926.00 -24.83501287   5.28858651
1928.00 -24.89276177   5.30471782
1930.00 -24.95056273   5.32088082
1932.00 -25.00841573   5.33707551
1934.00 -25.06632074   5.35330193
1936.00 -25.12427775   5.36956011
1938.00 -25.18228673   5.38585006
1940.00 -25.24034765   5.40217181
1942.00 -25.29846051   5.41852540
1944.00 -25.35662526   5.43491083
1946.00 -25.41484189   5.45132815
1948.00 -25.47311038   5.46777738
1950.00 -25.53143070   5.48425853
1952.00 -25.58980283   5.50077164
1954.00 -25.64822674   5.51731673
1956.00 -25.70670242   5.53389383
1958.00 -25.76522984   5.55050296
1960.00 -25.82380898   5.56714415
1962.00 -25.88243981   5.58381743
1964.00 -25.94112232   5.60052281
1966.00 -25.99985647   5.61726032
1968.00 -26.05864224   5.63402999
1970.00 -26.11747962   5.65083185
1972.00 -26.17636857   5.66766592
1974.00 -26.23530909   5.68453222
1976.00 -26.29430113   5.70143078
1978.00 -26.35334468   5.71836163
1980.00 -26.41243971   5.73532478
1982.00 -26.47158621   5.75232027
1984.00 -26.53078415   5.76934812
1986.00 -26.59003350   5.78640836
1988.00 -26.64933425   5.80350101
1990.00 -26.70868636   5.82062609
1992.00 -26.76808982   5.83778363
1994.00 -26.82754460   5.85497366
1996.00 -26.88705068   5.87219620
1998.00 -26.94660803   5.88945127
2000.00 -27.00621664   5.90673890
2002.00 -27.06587648   5.92405912
2004.00 -27.12558752   5.94141195
2006.00 -27.18534974   5.95879741
2008.00 -27.24516312   5.97621553
2010.00 -27.30502763   5.99366634
2012.00 -27.36494326   6.01114986
2014.00 -27.42490997   6.02866611
2016.00 -27.48492775   6.04621512
2018.00 -27.54499656   6.06379691
2020.00 -27.60511640   6.08141151
2022.00 -27.66528723   6.09905894
2024.00 -27.72550902   6.11673924
2026.00 -27.78578177   6.13445241
2028.00 -27.84610543   6.15219849
2030.00 -27.90647999   6.16997750
2032.00 -27.96690543   6.18778947
2034.00 -28.02738172   6.20563442
2036.00 -28.08790884   6.22351237
2038.00 -28.14848677   6.24142336
2040.00 -28.20911547   6.25936739
2042.00 -28.26979493   6.27734451
2044.00 -28.33052512   6.29535473
2046.00 -28.39130602   6.31339808
2048.00 -28.45213761   6.33147458
2050.00 -28.51301986   6.34958425
2052.00 -28.57395275   6.36772713
2054.00 -28.63493625   6.38590323
2056.00 -28.69597034   6.40411258
2058.00 -28.75705499   6.42235521
2060.00 -28.81819019   6.44063113
2062.00 -28.87937591   6.45894038
2064.00 -28.94061212   6.47728297
2066.00 -29.00189881   6.49565893
2068.00 -29.06323594   6.51406829
2070.00 -29.12462349   6.53251107
2072.00 -29.18606144   6.55098729
2074.00 -29.24754977   6.56949698
2076.00 -29.30908844   6.58804016
2078.00 -29.37067745   6.60661685
2080.00 -29.43231676   6.62522709
2082.00 -29.49400634   6.64387089
2084.00 -29.55574619   6.66254828
2086.00 -29.61753626   6.68125928
2088.00 -29.67937654   6.70000392
2090.00 -29.74126700   6.71878221
2092.00 -29.80320762   6.73759419
2094.00 -29.86519838   6.75643988
2096.00 -29.92723924   6.77531930
2098.00 -29.98933020   6.79423248
2100.00 -30.05147121   6.81317943
2102.00 -30.11366226   6.83216019
2104.00 -30.17590333   6.85117478
2106.00 -30.23819439   6.87022322
2108.00 -30.30053541   6.88930553
2110.00 -30.36292637   6.90842174
2112.00 -30.42536725   6.92757187
2114.00 -30.48785803   6.94675595
2116.00 -30.55039867   6.96597400
2118.00 -30.61298915   6.98522604
2120.00 -30.67562946   7.00451210
2122.00 -30.73831956   7.02383220
2124.00 -30.80105943   7.04318637
2126.00 -30.86384905   7.06257462
2128.00 -30.92668840   7.08199699
2130.00 -30.98957744   7.10145349
2132.00 -31.05251615   7.12094414
2134.00 -31.11550452   7.14046899
2136.00 -31.17854251   7.16002803
2138.00 -31.24163010   7.17962131
2140.00 -31.30476727   7.19924883
2142.00 -31.36795399   7.21891064
2144.00 -31.43119023   7.23860674
2146.00 -31.49447598   7.25833717
2148.00 -31.55781121   7.27810194
2150.00 -31.62119589   7.29790108
2152.00 -31.68463001   7.31773462
2154.00 -31.74811352   7.33760257
2156.00 -31.81164642   7.35750496
2158.00 -31.87522868   7.37744181
2160.00 -31.93886026   7.39741315
2162.00 -32.00254115   7.41741899
2164.00 -32.06627133   7.43745937
2166.00 -32.13005076   7.45753431
2168.00 -32.19387943   7.47764382
2170.00 -32.25775730   7.49778794
2172.00 -32.32168436   7.51796668
2174.00 -32.38566057   7.53818007
2176.00 -32.44968593   7.55842812
2178.00 -32.51376039   7.57871088
2180.00 -32.57788393   7.59902835
2182.00 -32.64205654   7.61938056
2184.00 -32.70627818   7.63976753
2186.00 -32.77054884   7.66018929
2188.00 -32.83486848   7.68064585
2190.00 -32.89923708   7.70113725
2192.00 -32.96365462   7.72166351
2194.00 -33.02812107   7.74222464
2196.00 -33.09263641   7.76282067
2198.00 -33.15720061   7.78345162
2200.00 -33.22181365   7.80411752
2202.00 -33.28647550   7.82481839
2204.00 -33.35118614   7.84555425
2206.00 -33.41594554   7.86632513
2208.00 -33.48075368   7.88713104
2210.00 -33.54561053   7.90797201
2212.00 -33.61051608   7.92884806
2214.00 -33.67547028   7.94975922
2216.00 -33.74047313   7.97070551
2218.00 -33.80552458   7.99168694
2220.00 -33.87062463   8.01270355
2222.00 -33.93577324   8.03375535
2224.00 -34.00097039   8.05484238
2226.00 -34.06621605   8.07596464
2228.00 -34.13151021   8.09712216
2230.00 -34.19685282   8.11831497
2232.00 -34.26224388   8.13954309
2234.00 -34.32768335   8.16080654
2236.00 -34.39317120   8.18210534
2238.00 -34.45870742   8.20343951
2240.00 -34.52429198   8.22480909
2242.00 -34.58992486   8.24621408
2244.00 -34.65560602   8.26765451
2246.00 -34.72133544   8.28913041
2248.00 -34.78711311   8.31064180
2250.00 -34.85293898   8.33218869
2252.00 -34.91881305   8.35377112
2254.00 -34.98473527   8.37538909
2256.00 -35.05070564   8.39704265
2258.00 -35.11672412   8.41873180
2260.00 -35.18279068   8.44045657
2262.00 -35.24890531   8.46221698
2264.00 -35.31506797   8.48401306
2266.00 -35.38127865   8.50584482
2268.00 -35.44753731   8.52771229
2270.00 -35.51384393   8.54961550
2272.00 -35.58019849   8.57155445
2274.00 -35.64660096   8.59352918
2276.00 -35.71305131   8.61553970
2278.00 -35.77954952   8.63758604
2280.00 -35.84609557   8.65966822
2282.00 -35.91268943   8.68178627
2284.00 -35.97933107   8.70394020
2286.00 -36.04602047   8.72613003
2288.00 -36.11275761   8.74835579
2290.00 -36.17954245   8.77061750
2292.00 -36.24637497   8.79291518
2294.00 -36.31325516   8.81524885
2296.00 -36.38018297   8.83761854
2298.00 -36.44715839   8.86002427
2300.00 -36.51418139   8.88246605
2302.00 -36.58125194   8.90494391
2304.00 -36.64837003   8.92745788
2306.00 -36.71553562   8.95000796
2308.00 -36.78274869   8.97259419
2310.00 -36.85000921   8.99521659
2312.00 -36.91731716   9.01787518
2314.00 -36.98467252   9.04056997
2316.00 -37.05207525   9.06330100
2318.00 -37.11952533   9.08606828
2320.00 -37.18702274   9.10887183
2322.00 -37.25456745   9.13171168
2324.00 -37.32215943   9.15458784
2326.00 -37.38979866   9.17750034
2328.00 -37.45748512   9.20044920
2330.00 -37.52521877   9.22343445
2332.00 -37.59299960   9.24645609
2334.00 -37.66082757   9.26951416
2336.00 -37.72870266   9.29260868
2338.00 -37.79662485   9.31573966
2340.00 -37.86459411   9.33890712
2342.00 -37.93261042   9.36211110
2344.00 -38.00067374   9.38535161
2346.00 -38.06878405   9.40862866
2348.00 -38.13694133   9.43194229
2350.00 -38.20514556   9.45529252
2352.00 -38.27339670   9.47867936
2354.00 -38.34169472   9.50210283
2356.00 -38.41003962   9.52556296
2358.00 -38.47843135   9.54905977
2360.00 -38.54686989   9.57259328
2362.00 -38.61535522   9.59616350
2364.00 -38.68388731   9.61977047
2366.00 -38.75246614   9.64341420
2368.00 -38.82109167   9.66709472
2370.00 -38.88976389   9.69081203
2372.00 -38.95848277   9.71456618
2374.00 -39.02724828   9.73835716
2376.00 -39.09606039   9.76218502
2378.00 -39.16491909   9.78604976
2380.00 -39.23382434   9.80995141
2382.00 -39.30277611   9.83388999
2384.00 -39.37177439   9.85786551
2386.00 -39.44081915   9.88187801
2388.00 -39.50991035   9.90592750
2390.00 -39.57904799   9.93001400
2392.00 -39.64823201   9.95413754
2394.00 -39.71746242   9.97829813
2396.00 -39.78673917  10.00249579
2398.00 -39.85606224  10.02673054
2400.00 -39.92543160  10.05100241
2402.00 -39.99484723  10.07531142
2404.00 -40.06430911  10.09965758
2406.00 -40.13381720  10.12404092
2408.00 -40.20337149  10.14846146
2410.00 -40.27297193  10.17291922
2412.00 -40.34261852  10.19741421
2414.00 -40.41231122  10.22194646
2416.00 -40.48205001  10.24651599
2418.00 -40.55183485  10.27112282
2420.00 -40.62166573  10.29576697
2422.00 -40.69154262  10.32044846
2424.00 -40.76146549  10.34516731
2426.00 -40.83143432  10.36992354
2428.00 -40.90144907  10.39471718
2430.00 -40.97150973  10.41954823
2432.00 -41.04161627  10.44441673
2434.00 -41.11176866  10.46932269
2436.00 -41.18196687  10.49426613
2438.00 -41.25221088  10.51924707
2440.00 -41.32250067  10.54426553
2442.00 -41.39283620  10.56932154
2444.00 -41.46321745  10.59441511
2446.00 -41.53364440  10.61954626
2448.00 -41.60411701  10.64471501
2450.00 -41.67463527  10.66992139
2452.00 -41.74519914  10.69516541
2454.00 -41.81580860  10.72044710
2456.00 -41.88646362  10.74576646
2458.00 -41.95716418  10.77112353
2460.00 -42.02791025  10.79651832
2462.00 -42.09870180  10.82195086
2464.00 -42.16953881  10.84742115
2466.00 -42.24042125  10.87292923
2468.00 -42.31134910  10.89847511
2470.00 -42.38232233  10.92405881
2472.00 -42.45334090  10.94968036
2474.00 -42.52440480  10.97533976
2476.00 -42.59551401  11.00103705
2478.00 -42.66666848  11.02677224
2480.00 -42.73786820  11.05254535
2482.00 -42.80911315  11.07835640
2484.00 -42.88040328  11.10420541
2486.00 -42.95173858  11.13009239
2488.00 -43.02311903  11.15601738
2490.00 -43.09454459  11.18198039
2492.00 -43.16601523  11.20798143
2494.00 -43.23753094  11.23402054
2496.00 -43.30909168  11.26009772
2498.00 -43.38069744  11.28621299
2500.00 -43.45234817  11.31236639
2502.00 -43.52404386  11.33855792
2504.00 -43.59578448  11.36478760
2506.00 -43.66757000  11.39105546
2508.00 -43.73940039  11.41736152
2510.00 -43.81127564  11.44370578
2512.00 -43.88319571  11.47008828
2514.00 -43.95516058  11.49650904
2516.00 -44.02717021  11.52296806
2518.00 -44.09922459  11.54946537
2520.00 -44.17132368  11.57600100
2522.00 -44.24346747  11.60257495
2524.00 -44.31565592  11.62918725
2526.00 -44.38788900  11.65583792
2528.00 -44.46016670  11.68252698
2530.00 -44.53248898  11.70925444
2532.00 -44.60485581  11.73602033
2534.00 -44.67726718  11.76282466
2536.00 -44.74972305  11.78966745
2538.00 -44.82222339  11.81654873
2540.00 -44.89476819  11.84346851
2542.00 -44.96735741  11.87042681
2544.00 -45.03999103  11.89742364
2546.00 -45.11266901  11.92445904
2548.00 -45.18539134  11.95153301
2550.00 -45.25815799  11.97864558
2552.00 -45.33096893  12.00579676
2554.00 -45.40382413  12.03298658
2556.00 -45.47672356  12.06021505
2558.00 -45.54966721  12.08748219
2560.00 -45.62265504  12.11478802
2562.00 -45.69568702  12.14213256
2564.00 -45.76876314  12.16951583
2566.00 -45.84188335  12.19693784
2568.00 -45.91504765  12.22439862
2570.00 -45.98825599  12.25189819
2572.00 -46.06150835  12.27943655
2574.00 -46.13480471  12.30701374
2576.00 -46.20814504  12.33462977
2578.00 -46.28152931  12.36228465
2580.00 -46.35495749  12.38997841
2582.00 -46.42842956  12.41771107
2584.00 -46.50194549  12.44548264
2586.00 -46.57550526  12.47329315
2588.00 -46.64910883  12.50114260
2590.00 -46.72275618  12.52903103
2592.00 -46.79644729  12.55695844
2594.00 -46.87018212  12.58492486
2596.00 -46.94396066  12.61293030
2598.00 -47.01778286  12.64097479
2600.00 -47.09164871  12.66905834
2602.00 -47.16555818  12.69718097
2604.00 -47.23951124  12.72534269
2606.00 -47.31350787  12.75354354
2608.00 -47.38754803  12.78178351
2610.00 -47.46163171  12.81006264
2612.00 -47.53575887  12.83838095
2614.00 -47.60992948  12.86673844
2616.00 -47.68414353  12.89513513
2618.00 -47.75840098  12.92357106
2620.00 -47.83270180  12.95204622
2622.00 -47.90704597  12.98056065
2624.00 -47.98143346  13.00911436
2626.00 -48.05586425  13.03770737
2628.00 -48.13033831  13.06633969
2630.00 -48.20485561  13.09501134
2632.00 -48.27941612  13.12372235
2634.00 -48.35401981  13.15247273
2636.00 -48.42866667  13.18126250
2638.00 -48.50335665  13.21009167
2640.00 -48.57808975  13.23896026
2642.00 -48.65286592  13.26786830
2644.00 -48.72768514  13.29681579
2646.00 -48.80254738  13.32580277
2648.00 -48.87745263  13.35482923
2650.00 -48.95240084  13.38389522
2652.00 -49.02739199  13.41300073
2654.00 -49.10242606  13.44214579
2656.00 -49.17750301  13.47133041
2658.00 -49.25262283  13.50055462
2660.00 -49.32778548  13.52981843
2662.00 -49.40299094  13.55912186
2664.00 -49.47823917  13.58846492
2666.00 -49.55353016  13.61784764
2668.00 -49.62886387  13.64727003
2670.00 -49.70424028  13.67673211
2672.00 -49.77965936  13.70623390
2674.00 -49.85512109  13.73577541
2676.00 -49.93062542  13.76535666
2678.00 -50.00617235  13.79497768
2680.00 -50.08176184  13.82463846
2682.00 -50.15739386  13.85433905
2684.00 -50.23306839  13.88407944
2686.00 -50.30878540  13.91385967
2688.00 -50.38454486  13.94367973
2690.00 -50.46034675  13.97353967
2692.00 -50.53619103  14.00343948
2694.00 -50.61207768  14.03337919
2696.00 -50.68800668  14.06335882
2698.00 -50.76397799  14.09337838
2700.00 -50.83999159  14.12343789
2702.00 -50.91604745  14.15353736
2704.00 -50.99214555  14.18367682
2706.00 -51.06828585  14.21385629
2708.00 -51.14446833  14.24407577
2710.00 -51.22069296  14.27433528
2712.00 -51.29695971  14.30463485
2714.00 -51.37326856  14.33497449
2716.00 -51.44961948  14.36535421
2718.00 -51.52601245  14.39577404
2720.00 -51.60244742  14.42623399
2722.00 -51.67892439  14.45673407
2724.00 -51.75544331  14.48727431
2726.00 -51.83200417  14.51785472
2728.00 -51.90860693  14.54847532
2730.00 -51.98525157  14.57913613
2732.00 -52.06193806  14.60983716
2734.00 -52.13866637  14.64057842
2736.00 -52.21543647  14.67135994
2738.00 -52.29224834  14.70218174
2740.00 -52.36910196  14.73304382
2742.00 -52.44599728  14.76394621
2744.00 -52.52293429  14.79488892
2746.00 -52.59991296  14.82587197
2748.00 -52.67693326  14.85689538
2750.00 -52.75399516  14.88795916
2752.00 -52.83109864  14.91906333
2754.00 -52.90824366  14.95020790
2756.00 -52.98543020  14.98139290
2758.00 -53.06265824  15.01261833
2760.00 -53.13992774  15.04388423
2762.00 -53.21723867  15.07519059
2764.00 -53.29459102  15.10653744
2766.00 -53.37198475  15.13792480
2768.00 -53.44941984  15.16935267
2770.00 -53.52689625  15.20082109
2772.00 -53.60441396  15.23233006
2774.00 -53.68197294  15.26387960
2776.00 -53.75957317  15.29546973
2778.00 -53.83721461  15.32710045
2780.00 -53.91489724  15.35877180
2782.00 -53.99262104  15.39048379
2784.00 -54.07038597  15.42223643
2786.00 -54.14819200  15.45402973
2788.00 -54.22603911  15.48586372
2790.00 -54.30392728  15.51773841
2792.00 -54.38185646  15.54965382
2794.00 -54.45982665  15.58160996
2796.00 -54.53783780  15.61360685
2798.00 -54.61588989  15.64564450
2800.00 -54.69398289  15.67772293
2802.00 -54.77211678  15.70984217
2804.00 -54.85029152  15.74200221
2806.00 -54.92850710  15.77420309
2808.00 -55.00676348  15.80644481
2810.00 -55.08506063  15.83872739
2812.00 -55.16339853  15.87105084
2814.00 -55.24177714  15.90341520
2816.00 -55.32019645  15.93582045
2818.00 -55.39865642  15.96826664
2820.00 -55.47715703  16.00075376
2822.00 -55.55569824  16.03328185
2824.00 -55.63428003  16.06585090
2826.00 -55.71290238  16.09846094
2828.00 -55.79156525  16.13111199
2830.00 -55.87026862  16.16380405
2832.00 -55.94901246  16.19653715
2834.00 -56.02779674  16.22931130
2836.00 -56.10662143  16.26212652
2838.00 -56.18548650  16.29498282
2840.00 -56.26439194  16.32788022
2842.00 -56.34333771  16.36081873
2844.00 -56.42232377  16.39379837
2846.00 -56.50135012  16.42681915
2848.00 -56.58041670  16.45988109
2850.00 -56.65952351  16.49298421
2852.00 -56.73867051  16.52612852
2854.00 -56.81785767  16.55931404
2856.00 -56.89708497  16.59254078
2858.00 -56.97635238  16.62580875
2860.00 -57.05565986  16.65911798
2862.00 -57.13500740  16.69246848
2864.00 -57.21439496  16.72586026
2866.00 -57.29382251  16.75929334
2868.00 -57.37329004  16.79276773
2870.00 -57.45279750  16.82628345
2872.00 -57.53234488  16.85984051
2874.00 -57.61193214  16.89343894
2876.00 -57.69155926  16.92707874
2878.00 -57.77122621  16.96075993
2880.00 -57.85093296  16.99448253
2882.00 -57.93067948  17.02824654
2884.00 -58.01046575  17.06205199
2886.00 -58.09029173  17.09589889
2888.00 -58.17015740  17.12978726
2890.00 -58.25006274  17.16371711
2892.00 -58.33000771  17.19768845
2894.00 -58.40999228  17.23170131
2896.00 -58.49001643  17.26575569
2898.00 -58.57008013  17.29985161
2900.00 -58.65018335  17.33398909
2902.00 -58.73032607  17.36816813
2904.00 -58.81050825  17.40238876
2906.00 -58.89072987  17.43665100
2908.00 -58.97099089  17.47095484
2910.00 -59.05129130  17.50530032
2912.00 -59.13163107  17.53968744
2914.00 -59.21201016  17.57411622
2916.00 -59.29242855  17.60858668
2918.00 -59.37288620  17.64309882
2920.00 -59.45338310  17.67765267
2922.00 -59.53391921  17.71224824
2924.00 -59.61449451  17.74688553
2926.00 -59.69510897  17.78156458
2928.00 -59.77576255  17.81628539
2930.00 -59.85645524  17.85104797
2932.00 -59.93718700  17.88585235
2934.00 -60.01795781  17.92069853
2936.00 -60.09876763  17.95558654
2938.00 -60.17961645  17.99051637
2940.00 -60.26050422  18.02548806
2942.00 -60.34143093  18.06050161
2944.00 -60.42239655  18.09555704
2946.00 -60.50340104  18.13065436
2948.00 -60.58444438  18.16579359
2950.00 -60.66552654  18.20097474
2952.00 -60.74664749  18.23619782
2954.00 -60.82780721  18.27146286
2956.00 -60.90900567  18.30676986
2958.00 -60.99024284  18.34211884
2960.00 -61.07151868  18.37750981
2962.00 -61.15283318  18.41294279
2964.00 -61.23418630  18.44841779
2966.00 -61.31557802  18.48393482
2968.00 -61.39700831  18.51949390
2970.00 -61.47847714  18.55509505
2972.00 -61.55998448  18.59073828
2974.00 -61.64153030  18.62642360
2976.00 -61.72311458  18.66215102
2978.00 -61.80473728  18.69792056
2980.00 -61.88639839  18.73373224
2982.00 -61.96809787  18.76958607
2984.00 -62.04983569  18.80548205
2986.00 -62.13161182  18.84142022
2988.00 -62.21342625  18.87740057
2990.00 -62.29527893  18.91342313
2992.00 -62.37716984  18.94948790
2994.00 -62.45909895  18.98559491
2996.00 -62.54106624  19.02174416
2998.00 -62.62307168  19.05793567
3000.00 -62.70511523  19.09416946
3002.00 -62.78719687  19.13044553
3004.00 -62.86931657  19.16676390
3006.00 -62.95147431  19.20312458
3008.00 -63.03367005  19.23952760
3010.00 -63.11590377  19.27597295
3012.00 -63.19817543  19.31246066
3014.00 -63.28048502  19.34899074
3016.00 -63.36283250  19.38556320
3018.00 -63.44521784  19.42217806
3020.00 -63.52764102  19.45883533
3022.00 -63.61010201  19.49553502
3024.00 -63.69260078  19.53227714
3026.00 -63.77513729  19.56906172
3028.00 -63.85771153  19.60588876
3030.00 -63.94032347  19.64275828
3032.00 -64.02297307  19.67967029
3034.00 -64.10566031  19.71662480
3036.00 -64.18838515  19.75362183
3038.00 -64.27114758  19.79066139
3040.00 -64.35394757  19.82774349
3042.00 -64.43678508  19.86486816
3044.00 -64.51966008  19.90203539
3046.00 -64.60257255  19.93924520
3048.00 -64.68552247  19.97649762
3050.00 -64.76850979  20.01379264
3052.00 -64.85153450  20.05113029
3054.00 -64.93459657  20.08851057
3056.00 -65.01769596  20.12593351
3058.00 -65.10083265  20.16339910
3060.00 -65.18400661  20.20090738
3062.00 -65.26721782  20.23845834
3064.00 -65.35046623  20.27605200
3066.00 -65.43375184  20.31368839
3068.00 -65.51707460  20.35136749
3070.00 -65.60043449  20.38908934
3072.00 -65.68383148  20.42685395
3074.00 -65.76726554  20.46466132
3076.00 -65.85073665  20.50251147
3078.00 -65.93424477  20.54040442
3080.00 -66.01778988  20.57834017
3082.00 -66.10137195  20.61631874
3084.00 -66.18499095  20.65434014
3086.00 -66.26864685  20.69240439
3088.00 -66.35233963  20.73051149
3090.00 -66.43606925  20.76866146
3092.00 -66.51983569  20.80685432
3094.00 -66.60363891  20.84509007
3096.00 -66.68747890  20.88336873
3098.00 -66.77135562  20.92169031
3100.00 -66.85526905  20.96005483
3102.00 -66.93921915  20.99846229
3104.00 -67.02320590  21.03691271
3106.00 -67.10722926  21.07540610
3108.00 -67.19128922  21.11394248
3110.00 -67.27538574  21.15252185
3112.00 -67.35951879  21.19114423
3114.00 -67.44368835  21.22980964
3116.00 -67.52789439  21.26851807
3118.00 -67.61213687  21.30726956
3120.00 -67.69641577  21.34606410
3122.00 -67.78073107  21.38490171
3124.00 -67.86508273  21.42378241
3126.00 -67.94947072  21.46270621
3128.00 -68.03389502  21.50167311
3130.00 -68.11835560  21.54068313
3132.00 -68.20285243  21.57973629
3134.00 -68.28738548  21.61883259
3136.00 -68.37195472  21.65797205
3138.00 -68.45656013  21.69715468
3140.00 -68.54120167  21.73638049
3142.00 -68.62587932  21.77564950
3144.00 -68.71059306  21.81496171
3146.00 -68.79534284  21.85431714
3148.00 -68.88012864  21.89371581
3150.00 -68.96495044  21.93315771
3152.00 -69.04980820  21.97264287
3154.00 -69.13470190  22.01217130
3156.00 -69.21963151  22.05174300
3158.00 -69.30459700  22.09135800
3160.00 -69.38959835  22.13101630
3162.00 -69.47463551  22.17071791
3164.00 -69.55970847  22.21046286
3166.00 -69.64481720  22.25025114
3168.00 -69.72996166  22.29008277
3170.00 -69.81514184  22.32995776
3172.00 -69.90035769  22.36987613
3174.00 -69.98560920  22.40983788
3176.00 -70.07089633  22.44984303
3178.00 -70.15621906  22.48989160
3180.00 -70.24157736  22.52998358
3182.00 -70.32697119  22.57011900
3184.00 -70.41240054  22.61029786
3186.00 -70.49786536  22.65052018
3188.00 -70.58336564  22.69078596
3190.00 -70.66890135  22.73109523
3192.00 -70.75447245  22.77144799
3194.00 -70.84007892  22.81184425
3196.00 -70.92572073  22.85228403
3198.00 -71.01139785  22.89276733
3200.00 -71.09711025  22.93329417
3202.00 -71.18285791  22.97386456
3204.00 -71.26864080  23.01447851
3206.00 -71.35445888  23.05513604
3208.00 -71.44031212  23.09583714
3210.00 -71.52620051  23.13658185
3212.00 -71.61212401  23.17737016
3214.00 -71.69808260  23.21820208
3216.00 -71.78407623  23.25907764
3218.00 -71.87010490  23.29999684
3220.00 -71.95616856  23.34095969
3222.00 -72.04226719  23.38196620
3224.00 -72.12840076  23.42301639
3226.00 -72.21456925  23.46411026
3228.00 -72.30077262  23.50524783
3230.00 -72.38701084  23.54642911
3232.00 -72.47328389  23.58765411
3234.00 -72.55959174  23.62892284
3236.00 -72.64593435  23.67023531
3238.00 -72.73231171  23.71159153
3240.00 -72.81872378  23.75299152
3242.00 -72.90517054  23.79443528
3244.00 -72.99165195  23.83592283
3246.00 -73.07816798  23.87745418
3248.00 -73.16471862  23.91902933
3250.00 -73.25130382  23.96064831
3252.00 -73.33792357  24.00231111
3254.00 -73.42457783  24.04401775
3256.00 -73.51126657  24.08576825
3258.00 -73.59798977  24.12756261
3260.00 -73.68474740  24.16940084
3262.00 -73.77153943  24.21128296
3264.00 -73.85836582  24.25320897
3266.00 -73.94522656  24.29517889
3268.00 -74.03212161  24.33719272
3270.00 -74.11905095  24.37925049
3272.00 -74.20601454  24.42135219
3274.00 -74.29301236  24.46349784
3276.00 -74.38004437  24.50568745
3278.00 -74.46711056  24.54792103
3280.00 -74.55421089  24.59019859
3282.00 -74.64134533  24.63252014
3284.00 -74.72851386  24.67488570
3286.00 -74.81571645  24.71729526
3288.00 -74.90295306  24.75974886
3290.00 -74.99022367  24.80224648
3292.00 -75.07752825  24.84478815
3294.00 -75.16486677  24.88737388
3296.00 -75.25223921  24.93000367
3298.00 -75.33964553  24.97267753
3300.00 -75.42708571  25.01539549
3302.00 -75.51455972  25.05815753
3304.00 -75.60206752  25.10096369
3306.00 -75.68960910  25.14381396
3308.00 -75.77718442  25.18670837
3310.00 -75.86479345  25.22964691
3312.00 -75.95243616  25.27262959
3314.00 -76.04011254  25.31565644
3316.00 -76.12782254  25.35872745
3318.00 -76.21556614  25.40184265
3320.00 -76.30334331  25.44500203
3322.00 -76.39115402  25.48820562
3324.00 -76.47899824  25.53145341
3326.00 -76.56687596  25.57474542
3328.00 -76.65478712  25.61808166
3330.00 -76.74273172  25.66146215
3332.00 -76.83070971  25.70488688
3334.00 -76.91872108  25.74835587
3336.00 -77.00676578  25.79186913
3338.00 -77.09484381  25.83542668
3340.00 -77.18295511  25.87902851
3342.00 -77.27109967  25.92267464
3344.00 -77.35927746  25.96636509
3346.00 -77.44748845  26.01009985
3348.00 -77.53573261  26.05387894
3350.00 -77.62400992  26.09770237
3352.00 -77.71232033  26.14157016
3354.00 -77.80066383  26.18548230
3356.00 -77.88904039  26.22943881
3358.00 -77.97744997  26.27343970
3360.00 -78.06589256  26.31748497
3362.00 -78.15436811  26.36157465
3364.00 -78.24287661  26.40570873
3366.00 -78.33141802  26.44988724
3368.00 -78.41999231  26.49411017
3370.00 -78.50859946  26.53837753
3372.00 -78.59723944  26.58268935
3374.00 -78.68591222  26.62704562
3376.00 -78.77461777  26.67144635
3378.00 -78.86335606  26.71589157
3380.00 -78.95212707  26.76038126
3382.00 -79.04093075  26.80491545
3384.00 -79.12976710  26.84949415
3386.00 -79.21863607  26.89411736
3388.00 -79.30753765  26.93878509
3390.00 -79.39647179  26.98349736
3392.00 -79.48543847  27.02825416
3394.00 -79.57443767  27.07305552
3396.00 -79.66346935  27.11790144
3398.00 -79.75253349  27.16279193
3400.00 -79.84163006  27.20772699
3402.00 -79.93075902  27.25270665
3404.00 -80.01992036  27.29773090
3406.00 -80.10911404  27.34279977
3408.00 -80.19834003  27.38791324
3410.00 -80.28759830  27.43307135
3412.00 -80.37688883  27.47827408
3414.00 -80.46621159  27.52352147
3416.00 -80.55556655  27.56881350
3418.00 -80.64495368  27.61415020
3420.00 -80.73437295  27.65953157
3422.00 -80.82382433  27.70495762
3424.00 -80.91330780  27.75042835
3426.00 -81.00282332  27.79594379
3428.00 -81.09237087  27.84150394
3430.00 -81.18195042  27.88710880
3432.00 -81.27156194  27.93275838
3434.00 -81.36120541  27.97845270
3436.00 -81.45088078  28.02419177
3438.00 -81.54058804  28.06997558
3440.00 -81.63032715  28.11580416
3442.00 -81.72009810  28.16167751
3444.00 -81.80990084  28.20759564
3446.00 -81.89973535  28.25355855
3448.00 -81.98960160  28.29956626
3450.00 -82.07949957  28.34561878
3452.00 -82.16942922  28.39171611
3454.00 -82.25939053  28.43785826
3456.00 -82.34938346  28.48404524
3458.00 -82.43940800  28.53027707
3460.00 -82.52946410  28.57655374
3462.00 -82.61955174  28.62287527
3464.00 -82.70967090  28.66924167
3466.00 -82.79982154  28.71565294
3468.00 -82.89000364  28.76210909
3470.00 -82.98021717  28.80861014
3472.00 -83.07046209  28.85515609
3474.00 -83.16073838  28.90174694
3476.00 -83.25104602  28.94838272
3478.00 -83.34138497  28.99506341
3480.00 -83.43175520  29.04178905
3482.00 -83.52215669  29.08855962
3484.00 -83.61258941  29.13537515
3486.00 -83.70305332  29.18223564
3488.00 -83.79354841  29.22914109
3490.00 -83.88407463  29.27609152
3492.00 -83.97463197  29.32308694
3494.00 -84.06522040  29.37012735
3496.00 -84.15583988  29.41721276
3498.00 -84.24649038  29.46434318
3500.00 -84.33717189  29.51151861
3502.00 -84.42788437  29.55873908
3504.00 -84.51862778  29.60600457
3506.00 -84.60940212  29.65331511
3508.00 -84.70020733  29.70067070
3510.00 -84.79104340  29.74807135
3512.00 -84.88191030  29.79551706
3514.00 -84.97280800  29.84300785
3516.00 -85.06373647  29.89054373
3518.00 -85.15469568  29.93812469
3520.00 -85.24568560  29.98575075
3522.00 -85.33670621  30.03342192
3524.00 -85.42775747  30.08113820
3526.00 -85.51883937  30.12889961
3528.00 -85.60995186  30.17670615
3530.00 -85.70109492  30.22455782
3532.00 -85.79226852  30.27245464
3534.00 -85.88347264  30.32039662
3536.00 -85.97470724  30.36838376
3538.00 -86.06597230  30.41641607
3540.00 -86.15726778  30.46449355
3542.00 -86.24859367  30.51261623
3544.00 -86.33994992  30.56078409
3546.00 -86.43133652  30.60899716
3548.00 -86.52275343  30.65725544
3550.00 -86.61420063  30.70555893
3552.00 -86.70567808  30.75390765
3554.00 -86.79718576  30.80230159
3556.00 -86.88872364  30.85074078
3558.00 -86.98029169  30.89922522
3560.00 -87.07188989  30.94775491
3562.00 -87.16351819  30.99632986
3564.00 -87.25517659  31.04495009
3566.00 -87.34686504  31.09361559
3568.00 -87.43858352  31.14232637
3570.00 -87.53033199  31.19108245
3572.00 -87.62211044  31.23988383
3574.00 -87.71391884  31.28873051
3576.00 -87.80575714  31.33762251
3578.00 -87.89762534  31.38655983
3580.00 -87.98952339  31.43554248
3582.00 -88.08145126  31.48457047
3584.00 -88.17340894  31.53364381
3586.00 -88.26539639  31.58276249
3588.00 -88.35741359  31.63192653
3590.00 -88.44946050  31.68113594
3592.00 -88.54153709  31.73039073
3594.00 -88.63364334  31.77969089
3596.00 -88.72577922  31.82903644
3598.00 -88.81794471  31.87842739
3600.00 -88.91013976  31.92786373
3602.00 -89.00236436  31.97734549
3604.00 -89.09461847  32.02687267
3606.00 -89.18690207  32.07644527
3608.00 -89.27921513  32.12606329
3610.00 -89.37155762  32.17572676
3612.00 -89.46392951  32.22543567
3614.00 -89.55633077  32.27519004
3616.00 -89.64876138  32.32498986
3618.00 -89.74122130  32.37483514
3620.00 -89.83371051  32.42472591
3622.00 -89.92622898  32.47466215
3624.00 -90.01877668  32.52464387
3626.00 -90.11135359  32.57467109
3628.00 -90.20395966  32.62474381
3630.00 -90.29659488  32.67486204
3632.00 -90.38925922  32.72502578
3634.00 -90.48195264  32.77523505
3636.00 -90.57467513  32.82548984
3638.00 -90.66742664  32.87579016
3640.00 -90.76020716  32.92613603
3642.00 -90.85301666  32.97652744
3644.00 -90.94585510  33.02696441
3646.00 -91.03872245  33.07744694
3648.00 -91.13161870  33.12797504
3650.00 -91.22454380  33.17854871
3652.00 -91.31749774  33.22916796
3654.00 -91.41048048  33.27983281
3656.00 -91.50349200  33.33054324
3658.00 -91.59653226  33.38129928
3660.00 -91.68960125  33.43210092
3662.00 -91.78269892  33.48294818
3664.00 -91.87582525  33.53384106
3666.00 -91.96898022  33.58477957
3668.00 -92.06216379  33.63576370
3670.00 -92.15537594  33.68679348
3672.00 -92.24861663  33.73786891
3674.00 -92.34188585  33.78898999
3676.00 -92.43518355  33.84015673
3678.00 -92.52850972  33.89136913
3680.00 -92.62186432  33.94262720
3682.00 -92.71524733  33.99393095
3684.00 -92.80865872  34.04528039
3686.00 -92.90209845  34.09667552
3688.00 -92.99556651  34.14811634
3690.00 -93.08906285  34.19960287
3692.00 -93.18258746  34.25113511
3694.00 -93.27614031  34.30271306
3696.00 -93.36972136  34.35433673
3698.00 -93.46333060  34.40600613
3700.00 -93.55696798  34.45772127
3702.00 -93.65063348  34.50948214
3704.00 -93.74432708  34.56128877
3706.00 -93.83804874  34.61314114
3708.00 -93.93179844  34.66503927
3710.00 -94.02557615  34.71698317
3712.00 -94.11938184  34.76897283
3714.00 -94.21321548  34.82100827
3716.00 -94.30707704  34.87308950
3718.00 -94.40096650  34.92521651
3720.00 -94.49488382  34.97738932
3722.00 -94.58882898  35.02960792
3724.00 -94.68280195  35.08187233
3726.00 -94.77680271  35.13418256
3728.00 -94.87083121  35.18653860
3730.00 -94.96488745  35.23894046
3732.00 -95.05897137  35.29138815
3734.00 -95.15308297  35.34388168
3736.00 -95.24722220  35.39642105
3738.00 -95.34138905  35.44900626
3740.00 -95.43558348  35.50163733
3742.00 -95.52980547  35.55431425
3744.00 -95.62405498  35.60703704
3746.00 -95.71833199  35.65980570
3748.00 -95.81263647  35.71262023
3750.00 -95.90696839  35.76548064
3752.00 -96.00132773  35.81838694
3754.00 -96.09571445  35.87133913
3756.00 -96.19012852  35.92433721
3758.00 -96.28456993  35.97738120
3760.00 -96.37903863  36.03047109
3762.00 -96.47353461  36.08360690
3764.00 -96.56805783  36.13678863
3766.00 -96.66260826  36.19001628
3768.00 -96.75718588  36.24328986
3770.00 -96.85179067  36.29660938
3772.00 -96.94642258  36.34997484
3774.00 -97.04108159  36.40338624
3776.00 -97.13576768  36.45684359
3778.00 -97.23048081  36.51034690
3780.00 -97.32522096  36.56389618
3782.00 -97.41998810  36.61749142
3784.00 -97.51478220  36.67113263
3786.00 -97.60960323  36.72481982
3788.00 -97.70445117  36.77855299
3790.00 -97.79932598  36.83233215
3792.00 -97.89422764  36.88615730
3794.00 -97.98915612  36.94002845
3796.00 -98.08411139  36.99394561
3798.00 -98.17909342  37.04790877
3800.00 -98.27410219  37.10191795
3802.00 -98.36913767  37.15597315
3804.00 -98.46419982  37.21007437
3806.00 -98.55928862  37.26422162
3808.00 -98.65440405  37.31841490
3810.00 -98.74954607  37.37265422
3812.00 -98.84471466  37.42693958
3814.00 -98.93990978  37.48127100
3816.00 -99.03513141  37.53564847
3818.00 -99.13037952  37.59007199
3820.00 -99.22565409  37.64454158
3822.00 -99.32095508  37.69905724
3824.00 -99.41628246  37.75361897
3826.00 -99.51163622  37.80822678
3828.00 -99.60701631  37.86288067
3830.00 -99.70242272  37.91758065
3832.00 -99.79785541  37.97232672
3834.00 -99.89331436  38.02711889
3836.00 -99.98879953  38.08195716
3838.00 -100.08431090  38.13684154
3840.00 -100.17984844  38.19177203
3842.00 -100.27541213  38.24674864
3844.00 -100.37100193  38.30177136
3846.00 -100.46661782  38.35684021
3848.00 -100.56225976  38.41195519
3850.00 -100.65792774  38.46711631
3852.00 -100.75362172  38.52232356
3854.00 -100.84934167  38.57757696
3856.00 -100.94508757  38.63287650
3858.00 -101.04085938  38.68822220
3860.00 -101.13665709  38.74361406
3862.00 -101.23248065  38.79905208
3864.00 -101.32833005  38.85453626
3866.00 -101.42420526  38.91006661
3868.00 -101.52010624  38.96564314
3870.00 -101.61603298  39.02126585
3872.00 -101.71198543  39.07693474
3874.00 -101.80796357  39.13264982
3876.00 -101.90396739  39.18841109
3878.00 -101.99999683  39.24421856
3880.00 -102.09605189  39.30007222
3882.00 -102.19213253  39.35597210
3884.00 -102.28823872  39.41191818
3886.00 -102.38437043  39.46791048
3888.00 -102.48052764  39.52394899
3890.00 -102.57671032  39.58003373
3892.00 -102.67291844  39.63616469
3894.00 -102.76915197  39.69234188
3896.00 -102.86541089  39.74856531
3898.00 -102.96169516  39.80483498
3900.00 -103.05800476  39.86115089
3902.00 -103.15433966  39.91751304
3904.00 -103.25069983  39.97392145
3906.00 -103.34708525  40.03037611
3908.00 -103.44349588  40.08687703
3910.00 -103.53993170  40.14342421
3912.00 -103.63639268  40.20001766
3914.00 -103.73287879  40.25665738
3916.00 -103.82939001  40.31334337
3918.00 -103.92592630  40.37007565
3920.00 -104.02248765  40.42685420
3922.00 -104.11907401  40.48367905
3924.00 -104.21568536  40.54055018
3926.00 -104.31232168  40.59746760
3928.00 -104.40898293  40.65443133
3930.00 -104.50566909  40.71144135
3932.00 -104.60238013  40.76849769
3934.00 -104.69911603  40.82560033
3936.00 -104.79587674  40.88274928
3938.00 -104.89266226  40.93994455
3940.00 -104.98947254  40.99718614
3942.00 -105.08630756  41.05447405
3944.00 -105.18316730  41.11180829
3946.00 -105.28005172  41.16918887
3948.00 -105.37696080  41.22661578
3950.00 -105.47389450  41.28408902
3952.00 -105.57085281  41.34160861
3954.00 -105.66783569  41.39917454
3956.00 -105.76484311  41.45678683
3958.00 -105.86187505  41.51444546
3960.00 -105.95893148  41.57215046
3962.00 -106.05601238  41.62990181
3964.00 -106.15311770  41.68769952
3966.00 -106.25024743  41.74554360
3968.00 -106.34740154  41.80343405
3970.00 -106.44458000  41.86137088
3972.00 -106.54178278  41.91935408
3974.00 -106.63900985  41.97738366
3976.00 -106.73626119  42.03545963
3978.00 -106.83353677  42.09358198
3980.00 -106.93083656  42.15175072
3982.00 -107.02816053  42.20996586
3984.00 -107.12550865  42.26822739
3986.00 -107.22288091  42.32653532
3988.00 -107.32027726  42.38488965
3990.00 -107.41769768  42.44329040
3992.00 -107.51514215  42.50173755
3994.00 -107.61261063  42.56023111
3996.00 -107.71010310  42.61877109
3998.00 -107.80761953  42.67735749
4000.00 -107.90515989  42.73599031
4002.00 -108.00272416  42.79466955
4004.00 -108.10031230  42.85339523
4006.00 -108.19792429  42.91216733
4008.00 -108.29556010  42.97098587
4010.00 -108.39321971  43.02985085
4012.00 -108.49090308  43.08876226
4014.00 -108.58861019  43.14772012
4016.00 -108.68634101  43.20672443
4018.00 -108.78409551  43.26577518
4020.00 -108.88187367  43.32487239
4022.00 -108.97967545  43.38401605
4024.00 -109.07750083  43.44320617
4026.00 -109.17534978  43.50244276
4028.00 -109.27322228  43.56172580
4030.00 -109.37111829  43.62105531
4032.00 -109.46903779  43.68043129
4034.00 -109.56698075  43.73985374
4036.00 -109.66494714  43.79932267
4038.00 -109.76293694  43.85883808
4040.00 -109.86095011  43.91839996
4042.00 -109.95898663  43.97800833
4044.00 -110.05704648  44.03766318
4046.00 -110.15512962  44.09736452
4048.00 -110.25323602  44.15711236
4050.00 -110.35136567  44.21690668
4052.00 -110.44951853  44.27674750
4054.00 -110.54769456  44.33663483
4056.00 -110.64589376  44.39656865
4058.00 -110.74411608  44.45654897
4060.00 -110.84236151  44.51657581
4062.00 -110.94063000  44.57664915
4064.00 -111.03892154  44.63676900
4066.00 -111.13723610  44.69693537
4068.00 -111.23557365  44.75714825
4070.00 -111.33393416  44.81740765
4072.00 -111.43231761  44.87771358
4074.00 -111.53072396  44.93806602
4076.00 -111.62915319  44.99846500
4078.00 -111.72760528  45.05891050
4080.00 -111.82608019  45.11940253
4082.00 -111.92457789  45.17994109
4084.00 -112.02309837  45.24052619
4086.00 -112.12164158  45.30115783
4088.00 -112.22020751  45.36183601
4090.00 -112.31879613  45.42256073
4092.00 -112.41740741  45.48333200
4094.00 -112.51604131  45.54414981
4096.00 -112.61469782  45.60501417
4098.00 -112.71337691  45.66592508
4100.00 -112.81207855  45.72688254
4102.00 -112.91080270  45.78788656
4104.00 -113.00954935  45.84893714
4106.00 -113.10831847  45.91003427
4108.00 -113.20711002  45.97117797
4110.00 -113.30592399  46.03236823
4112.00 -113.40476034  46.09360506
4114.00 -113.50361904  46.15488845
4116.00 -113.60250008  46.21621842
4118.00 -113.70140341  46.27759495
4120.00 -113.80032902  46.33901806
4122.00 -113.89927688  46.40048775
4124.00 -113.99824695  46.46200401
4126.00 -114.09723922  46.52356685
4128.00 -114.19625365  46.58517628
4130.00 -114.29529021  46.64683229
4132.00 -114.39434889  46.70853488
4134.00 -114.49342964  46.77028406
4136.00 -114.59253245  46.83207982
4138.00 -114.69165729  46.89392218
4140.00 -114.79080412  46.95581113
4142.00 -114.88997293  47.01774668
4144.00 -114.98916368  47.07972882
4146.00 -115.08837635  47.14175756
4148.00 -115.18761091  47.20383289
4150.00 -115.28686733  47.26595483
4152.00 -115.38614559  47.32812337
4154.00 -115.48544565  47.39033852
4156.00 -115.58476749  47.45260027
4158.00 -115.68411109  47.51490863
4160.00 -115.78347641  47.57726359
4162.00 -115.88286343  47.63966517
4164.00 -115.98227212  47.70211336
4166.00 -116.08170245  47.76460817
4168.00 -116.18115440  47.82714959
4170.00 -116.28062794  47.88973762
4172.00 -116.38012304  47.95237228
4174.00 -116.47963967  48.01505355
4176.00 -116.57917781  48.07778145
4178.00 -116.67873743  48.14055597
4180.00 -116.77831850  48.20337711
4182.00 -116.87792100  48.26624488
4184.00 -116.97754489  48.32915927
4186.00 -117.07719016  48.39212030
4188.00 -117.17685677  48.45512795
4190.00 -117.27654469  48.51818223
4192.00 -117.37625390  48.58128315
4194.00 -117.47598437  48.64443070
4196.00 -117.57573608  48.70762488
4198.00 -117.67550899  48.77086570
4200.00 -117.77530309  48.83415316
4202.00 -117.87511833  48.89748725
4204.00 -117.97495470  48.96086799
4206.00 -118.07481217  49.02429536
4208.00 -118.17469071  49.08776938
4210.00 -118.27459029  49.15129004
4212.00 -118.37451089  49.21485735
4214.00 -118.47445248  49.27847130
4216.00 -118.57441503  49.34213189
4218.00 -118.67439851  49.40583914
4220.00 -118.77440290  49.46959303
4222.00 -118.87442817  49.53339357
4224.00 -118.97447430  49.59724076
4226.00 -119.07454125  49.66113461
4228.00 -119.17462900  49.72507510
4230.00 -119.27473752  49.78906225
4232.00 -119.37486679  49.85309606
4234.00 -119.47501677  49.91717652
4236.00 -119.57518745  49.98130363
4238.00 -119.67537879  50.04547741
4240.00 -119.77559076  50.10969784
4242.00 -119.87582334  50.17396493
4244.00 -119.97607651  50.23827868
4246.00 -120.07635023  50.30263909
4248.00 -120.17664448  50.36704616
4250.00 -120.27695923  50.43149989
4252.00 -120.37729445  50.49600029
4254.00 -120.47765012  50.56054735
4256.00 -120.57802621  50.62514107
4258.00 -120.67842269  50.68978146
4260.00 -120.77883954  50.75446851
4262.00 -120.87927673  50.81920223
4264.00 -120.97973422  50.88398262
4266.00 -121.08021201  50.94880967
4268.00 -121.18071005  51.01368340
4270.00 -121.28122832  51.07860379
4272.00 -121.38176679  51.14357085
4274.00 -121.48232544  51.20858458
4276.00 -121.58290424  51.27364498
4278.00 -121.68350316  51.33875206
4280.00 -121.78412218  51.40390580
4282.00 -121.88476127  51.46910622
4284.00 -121.98542039  51.53435331
4286.00 -122.08609954  51.59964707
4288.00 -122.18679867  51.66498750
4290.00 -122.28751776  51.73037461
4292.00 -122.38825679  51.79580839
4294.00 -122.48901572  51.86128885
4296.00 -122.58979453  51.92681598
4298.00 -122.69059320  51.99238979
4300.00 -122.79141169  52.05801028
4302.00 -122.89224998  52.12367744
4304.00 -122.99310805  52.18939127
4306.00 -123.09398586  52.25515178
4308.00 -123.19488338  52.32095897
4310.00 -123.29580060  52.38681284
4312.00 -123.39673749  52.45271338
4314.00 -123.49769401  52.51866060
4316.00 -123.59867015  52.58465450
4318.00 -123.69966587  52.65069508
4320.00 -123.80068115  52.71678233
4322.00 -123.90171596  52.78291626
4324.00 -124.00277027  52.84909687
4326.00 -124.10384406  52.91532416
4328.00 -124.20493730  52.98159813
4330.00 -124.30604996  53.04791877
4332.00 -124.40718202  53.11428610
4334.00 -124.50833345  53.18070010
4336.00 -124.60950423  53.24716078
4338.00 -124.71069432  53.31366814
4340.00 -124.81190370  53.38022218
4342.00 -124.91313235  53.44682290
4344.00 -125.01438023  53.51347029
4346.00 -125.11564732  53.58016436
4348.00 -125.21693359  53.64690512
4350.00 -125.31823902  53.71369255
4352.00 -125.41956358  53.78052665
4354.00 -125.52090724  53.84740744
4356.00 -125.62226998  53.91433490
4358.00 -125.72365176  53.98130905
4360.00 -125.82505257  54.04832986
4362.00 -125.92647238  54.11539736
4364.00 -126.02791115  54.18251153
4366.00 -126.12936887  54.24967238
4368.00 -126.23084551  54.31687991
4370.00 -126.33234103  54.38413411
4372.00 -126.43385541  54.45143499
4374.00 -126.53538864  54.51878254
4376.00 -126.63694067  54.58617677
4378.00 -126.73851148  54.65361767
4380.00 -126.84010105  54.72110525
4382.00 -126.94170935  54.78863950
4384.00 -127.04333636  54.85622043
4386.00 -127.14498204  54.92384803
4388.00 -127.24664637  54.99152230
4390.00 -127.34832932  55.05924324
4392.00 -127.45003087  55.12701086
4394.00 -127.55175099  55.19482515
4396.00 -127.65348966  55.26268611
4398.00 -127.75524684  55.33059373
4400.00 -127.85702251  55.39854803
4402.00 -127.95881665  55.46654900
4404.00 -128.06062922  55.53459664
4406.00 -128.16246020  55.60269094
4408.00 -128.26430957  55.67083191
4410.00 -128.36617730  55.73901955
4412.00 -128.46806336  55.80725386
4414.00 -128.56996773  55.87553483
4416.00 -128.67189037  55.94386247
4418.00 -128.77383126  56.01223677
4420.00 -128.87579038  56.08065773
4422.00 -128.97776770  56.14912536
4424.00 -129.07976320  56.21763965
4426.00 -129.18177684  56.28620060
4428.00 -129.28380860  56.35480821
4430.00 -129.38585845  56.42346248
4432.00 -129.48792637  56.49216341
4434.00 -129.59001233  56.56091099
4436.00 -129.69211631  56.62970524
4438.00 -129.79423827  56.69854614
4440.00 -129.89637819  56.76743370
4442.00 -129.99853605  56.83636791
4444.00 -130.10071182  56.90534877
4446.00 -130.20290547  56.97437629
4448.00 -130.30511698  57.04345046
4450.00 -130.40734632  57.11257128
4452.00 -130.50959346  57.18173875
4454.00 -130.61185838  57.25095287
4456.00 -130.71414105  57.32021363
4458.00 -130.81644144  57.38952105
4460.00 -130.91875953  57.45887511
4462.00 -131.02109530  57.52827581
4464.00 -131.12344871  57.59772316
4466.00 -131.22581973  57.66721715
4468.00 -131.32820836  57.73675778
4470.00 -131.43061455  57.80634506
4472.00 -131.53303828  57.87597897
4474.00 -131.63547952  57.94565952
4476.00 -131.73793825  58.01538670
4478.00 -131.84041445  58.08516052
4480.00 -131.94290807  58.15498098
4482.00 -132.04541911  58.22484807
4484.00 -132.14794754  58.29476179
4486.00 -132.25049332  58.36472214
4488.00 -132.35305643  58.43472913
4490.00 -132.45563684  58.50478274
4492.00 -132.55823454  58.57488297
4494.00 -132.66084948  58.64502983
4496.00 -132.76348165  58.71522332
4498.00 -132.86613103  58.78546343
4500.00 -132.96879757  58.85575016
4502.00 -133.07148127  58.92608351
4504.00 -133.17418208  58.99646348
4506.00 -133.27689999  59.06689007
4508.00 -133.37963498  59.13736327
4510.00 -133.48238700  59.20788308
4512.00 -133.58515604  59.27844951
4514.00 -133.68794207  59.34906255
4516.00 -133.79074507  59.41972220
4518.00 -133.89356501  59.49042846
4520.00 -133.99640186  59.56118132
4522.00 -134.09925560  59.63198079
4524.00 -134.20212619  59.70282687
4526.00 -134.30501363  59.77371954
4528.00 -134.40791787  59.84465882
4530.00 -134.51083889  59.91564469
4532.00 -134.61377667  59.98667717
4534.00 -134.71673119  60.05775623
4536.00 -134.81970240  60.12888189
4538.00 -134.92269030  60.20005415
4540.00 -135.02569485  60.27127299
4542.00 -135.12871602  60.34253842
4544.00 -135.23175380  60.41385044
4546.00 -135.33480815  60.48520904
4548.00 -135.43787905  60.55661423
4550.00 -135.54096648  60.62806600
4552.00 -135.64407040  60.69956435
4554.00 -135.74719079  60.77110928
4556.00 -135.85032763  60.84270078
4558.00 -135.95348089  60.91433886
4560.00 -136.05665054  60.98602351
4562.00 -136.15983656  61.05775473
4564.00 -136.26303892  61.12953252
4566.00 -136.36625760  61.20135687
4568.00 -136.46949256  61.27322779
4570.00 -136.57274379  61.34514528
4572.00 -136.67601126  61.41710932
4574.00 -136.77929495  61.48911992
4576.00 -136.88259481  61.56117708
4578.00 -136.98591084  61.63328080
4580.00 -137.08924301  61.70543107
4582.00 -137.19259128  61.77762788
4584.00 -137.29595564  61.84987125
4586.00 -137.39933606  61.92216117
4588.00 -137.50273251  61.99449762
4590.00 -137.60614496  62.06688063
4592.00 -137.70957340  62.13931017
4594.00 -137.81301779  62.21178625
4596.00 -137.91647811  62.28430886
4598.00 -138.01995433  62.35687801
4600.00 -138.12344643  62.42949369
4602.00 -138.22695438  62.50215590
4604.00 -138.33047816  62.57486464
4606.00 -138.43401774  62.64761991
4608.00 -138.53757309  62.72042169
4610.00 -138.64114419  62.79327000
4612.00 -138.74473102  62.86616482
4614.00 -138.84833354  62.93910616
4616.00 -138.95195174  63.01209402
4618.00 -139.05558558  63.08512839
4620.00 -139.15923504  63.15820926
4622.00 -139.26290010  63.23133664
4624.00 -139.36658073  63.30451053
4626.00 -139.47027690  63.37773091
4628.00 -139.57398859  63.45099780
4630.00 -139.67771578  63.52431119
4632.00 -139.78145843  63.59767106
4634.00 -139.88521652  63.67107744
4636.00 -139.98899003  63.74453030
4638.00 -140.09277893  63.81802964
4640.00 -140.19658319  63.89157548
4642.00 -140.30040280  63.96516779
4644.00 -140.40423771  64.03880658
4646.00 -140.50808792  64.11249185
4648.00 -140.61195339  64.18622360
4650.00 -140.71583410  64.26000182
4652.00 -140.81973002  64.33382650
4654.00 -140.92364112  64.40769766
4656.00 -141.02756739  64.48161528
4658.00 -141.13150879  64.55557935
4660.00 -141.23546530  64.62958989
4662.00 -141.33943690  64.70364689
4664.00 -141.44342355  64.77775033
4666.00 -141.54742524  64.85190023
4668.00 -141.65144194  64.92609658
4670.00 -141.75547362  65.00033937
4672.00 -141.85952026  65.07462860
4674.00 -141.96358183  65.14896428
4676.00 -142.06765831  65.22334639
4678.00 -142.17174967  65.29777493
4680.00 -142.27585588  65.37224991
4682.00 -142.37997693  65.44677131
4684.00 -142.48411278  65.52133914
4686.00 -142.58826341  65.59595340
4688.00 -142.69242880  65.67061407
4690.00 -142.79660891  65.74532116
4692.00 -142.90080373  65.82007466
4694.00 -143.00501323  65.89487458
4696.00 -143.10923738  65.96972090
4698.00 -143.21347616  66.04461363
4700.00 -143.31772954  66.11955276
4702.00 -143.42199750  66.19453829
4704.00 -143.52628001  66.26957022
4706.00 -143.63057705  66.34464854
4708.00 -143.73488860  66.41977325
4710.00 -143.83921461  66.49494435
4712.00 -143.94355508  66.57016184
4714.00 -144.04790998  66.64542570
4716.00 -144.15227927  66.72073594
4718.00 -144.25666295  66.79609256
4720.00 -144.36106097  66.87149555
4722.00 -144.46547332  66.94694491
4724.00 -144.56989997  67.02244063
4726.00 -144.67434089  67.09798272
4728.00 -144.77879607  67.17357116
4730.00 -144.88326546  67.24920596
4732.00 -144.98774906  67.32488712
4734.00 -145.09224684  67.40061462
4736.00 -145.19675876  67.47638847
4738.00 -145.30128480  67.55220867
4740.00 -145.40582495  67.62807520
4742.00 -145.51037917  67.70398807
4744.00 -145.61494744  67.77994728
4746.00 -145.71952973  67.85595281
4748.00 -145.82412603  67.93200467
4750.00 -145.92873629  68.00810285
4752.00 -146.03336051  68.08424736
4754.00 -146.13799865  68.16043818
4756.00 -146.24265069  68.23667531
4758.00 -146.34731660  68.31295876
4760.00 -146.45199636  68.38928851
4762.00 -146.55668995  68.46566456
4764.00 -146.66139733  68.54208691
4766.00 -146.76611849  68.61855556
4768.00 -146.87085340  68.69507050
4770.00 -146.97560203  68.77163173
4772.00 -147.08036436  68.84823925
4774.00 -147.18514036  68.92489305
4776.00 -147.28993002  69.00159312
4778.00 -147.39473329  69.07833948
4780.00 -147.49955017  69.15513210
4782.00 -147.60438062  69.23197099
4784.00 -147.70922462  69.30885615
4786.00 -147.81408215  69.38578756
4788.00 -147.91895318  69.46276524
4790.00 -148.02383768  69.53978916
4792.00 -148.12873563  69.61685934
4794.00 -148.23364701  69.69397576
4796.00 -148.33857179  69.77113843
4798.00 -148.44350994  69.84834733
4800.00 -148.54846144  69.92560247
4802.00 -148.65342627  70.00290384
4804.00 -148.75840440  70.08025144
4806.00 -148.86339581  70.15764526
4808.00 -148.96840047  70.23508530
4810.00 -149.07341836  70.31257156
4812.00 -149.17844945  70.39010403
4814.00 -149.28349372  70.46768271
4816.00 -149.38855114  70.54530759
4818.00 -149.49362168  70.62297867
4820.00 -149.59870533  70.70069596
4822.00 -149.70380206  70.77845943
4824.00 -149.80891185  70.85626910
4826.00 -149.91403466  70.93412494
4828.00 -150.01917048  71.01202698
4830.00 -150.12431927  71.08997518
4832.00 -150.22948103  71.16796957
4834.00 -150.33465571  71.24601012
4836.00 -150.43984330  71.32409684
4838.00 -150.54504377  71.40222972
4840.00 -150.65025710  71.48040875
4842.00 -150.75548326  71.55863395
4844.00 -150.86072222  71.63690529
4846.00 -150.96597397  71.71522277
4848.00 -151.07123848  71.79358640
4850.00 -151.17651572  71.87199617
4852.00 -151.28180568  71.95045207
4854.00 -151.38710831  72.02895410
4856.00 -151.49242361  72.10750225
4858.00 -151.59775154  72.18609652
4860.00 -151.70309208  72.26473692
4862.00 -151.80844521  72.34342342
4864.00 -151.91381090  72.42215603
4866.00 -152.01918913  72.50093475
4868.00 -152.12457987  72.57975957
4870.00 -152.22998311  72.65863048
4872.00 -152.33539880  72.73754749
4874.00 -152.44082694  72.81651058
4876.00 -152.54626749  72.89551976
4878.00 -152.65172043  72.97457502
4880.00 -152.75718574  73.05367635
4882.00 -152.86266338  73.13282375
4884.00 -152.96815335  73.21201722
4886.00 -153.07365561  73.29125675
4888.00 -153.17917014  73.37054233
4890.00 -153.28469692  73.44987397
4892.00 -153.39023591  73.52925166
4894.00 -153.49578710  73.60867539
4896.00 -153.60135046  73.68814517
4898.00 -153.70692597  73.76766097
4900.00 -153.81251360  73.84722281
4902.00 -153.91811333  73.92683068
4904.00 -154.02372513  74.00648457
4906.00 -154.12934899  74.08618448
4908.00 -154.23498487  74.16593040
4910.00 -154.34063275  74.24572232
4912.00 -154.44629260  74.32556026
4914.00 -154.55196441  74.40544419
4916.00 -154.65764815  74.48537412
4918.00 -154.76334380  74.56535004
4920.00 -154.86905132  74.64537194
4922.00 -154.97477070  74.72543983
4924.00 -155.08050191  74.80555369
4926.00 -155.18624493  74.88571353
4928.00 -155.29199973  74.96591933
4930.00 -155.39776629  75.04617110
4932.00 -155.50354458  75.12646882
4934.00 -155.60933459  75.20681250
4936.00 -155.71513628  75.28720213
4938.00 -155.82094964  75.36763770
4940.00 -155.92677463  75.44811921
4942.00 -156.03261124  75.52864666
4944.00 -156.13845944  75.60922004
4946.00 -156.24431920  75.68983934
4948.00 -156.35019051  75.77050456
4950.00 -156.45607334  75.85121570
4952.00 -156.56196765  75.93197275
4954.00 -156.66787344  76.01277571
4956.00 -156.77379068  76.09362457
4958.00 -156.87971933  76.17451933
4960.00 -156.98565939  76.25545998
4962.00 -157.09161081  76.33644651
4964.00 -157.19757359  76.41747893
4966.00 -157.30354769  76.49855722
4968.00 -157.40953310  76.57968139
4970.00 -157.51552978  76.66085143
4972.00 -157.62153771  76.74206732
4974.00 -157.72755688  76.82332908
4976.00 -157.83358725  76.90463669
4978.00 -157.93962881  76.98599014
4980.00 -158.04568152  77.06738944
4982.00 -158.15174536  77.14883458
4984.00 -158.25782032  77.23032555
4986.00 -158.36390636  77.31186235
4988.00 -158.47000347  77.39344497
4990.00 -158.57611161  77.47507341
4992.00 -158.68223077  77.55674766
4994.00 -158.78836092  77.63846772
4996.00 -158.89450203  77.72023358
4998.00 -159.00065409  77.80204524
5000.00 -159.10681707  77.88390269
